"Time (s)","Linear Acceleration x (m/s^2)","Linear Acceleration y (m/s^2)","Linear Acceleration z (m/s^2)"
4.266396700E-2,0.000000000E0,0.000000000E0,0.000000000E0
4.744141500E-2,1.227796078E-2,5.315780640E-3,-2.907490730E-2
5.221891500E-2,7.012963295E-3,-1.768112183E-2,-6.333184242E-2
5.699636300E-2,-1.040995121E-2,-2.950859070E-2,-8.707058430E-2
6.177381100E-2,-1.163649559E-2,-3.184413910E-2,-1.286172867E-1
6.655131100E-2,-3.955745697E-2,-4.059886932E-2,-1.516504288E-1
7.132875900E-2,-9.839498997E-2,-4.307651520E-2,-1.196918190E-1
7.610625900E-2,-1.278083324E-1,-5.443763733E-2,-7.100239396E-2
8.088370700E-2,-1.343086958E-1,-3.245067596E-2,2.447366714E-4
8.566115500E-2,-8.923780918E-2,-8.785247803E-3,7.827746868E-2
9.043865500E-2,-1.169502735E-2,9.363174438E-3,1.478999257E-1
9.521610300E-2,5.925559998E-2,3.758907318E-2,2.283474803E-1
9.999360300E-2,9.328579903E-2,4.846000671E-2,2.724425793E-1
1.047710510E-1,1.344985962E-1,4.664707184E-2,3.024256825E-1
1.095480300E-1,1.268780231E-1,4.855251312E-2,3.283395171E-1
1.143259990E-1,1.008126736E-1,1.579856873E-2,3.195599914E-1
1.191034470E-1,8.456373215E-2,-1.554107666E-2,2.958673835E-1
1.238808940E-1,6.096220016E-2,-1.753711700E-2,2.724621296E-1
1.286583940E-1,1.213479042E-2,-4.186630249E-3,2.086876035E-1
1.334358420E-1,-2.067673206E-2,1.130294800E-2,1.686195135E-1
1.382133420E-1,-3.551340103E-2,2.778339386E-2,1.308918595E-1
1.429907900E-1,-3.039169312E-2,3.501224518E-2,8.534550667E-2
1.477682380E-1,-4.168736935E-2,2.367877960E-2,3.722888231E-2
1.525457380E-1,-3.317320347E-2,2.145004272E-2,1.411336660E-2
1.573231860E-1,-2.561211586E-2,2.051353455E-2,-1.170861721E-2
1.621006340E-1,6.385207176E-3,1.793003082E-2,-2.163827419E-2
1.668781340E-1,1.935458183E-2,2.354240417E-2,-1.173740625E-2
1.716555820E-1,5.790197849E-2,-1.196002960E-2,1.684123278E-2
1.764330820E-1,8.024072647E-2,-1.620578766E-2,3.750312328E-2
1.812105300E-1,6.554770470E-2,-4.056262970E-2,6.216698885E-2
1.859880300E-1,7.973682880E-2,-3.581333160E-2,8.203768730E-2
1.907654780E-1,7.097232342E-2,-3.994655609E-2,8.868050575E-2
1.955429260E-1,5.970871449E-2,-1.730251312E-2,1.068526506E-1
2.003204260E-1,4.002940655E-2,-4.068374634E-3,1.112748981E-1
2.050978740E-1,2.733206749E-2,2.737045288E-2,1.018355489E-1
2.098753220E-1,-1.058077812E-2,2.306270599E-2,9.739977121E-2
2.146528220E-1,-2.421402931E-2,2.469921112E-2,8.396643400E-2
2.194302690E-1,-1.535809040E-2,-7.467269897E-3,7.265496254E-2
2.242077690E-1,-2.656650543E-2,-1.142501831E-2,6.229883432E-2
2.289852170E-1,-1.761913300E-4,-4.209518433E-3,4.817116261E-2
2.337626650E-1,-2.440333366E-3,-4.175186157E-3,5.894958973E-2
2.385401650E-1,-2.103292942E-2,1.108169556E-3,6.538647413E-2
2.433176130E-1,4.009366035E-3,4.205703735E-4,6.354379654E-2
2.480950610E-1,1.440274715E-2,7.920265198E-3,7.586795092E-2
2.528725610E-1,2.872145176E-2,1.702213287E-2,8.502602577E-2
2.576500090E-1,3.635406494E-2,1.598072052E-2,1.018330455E-1
2.624275090E-1,4.087412357E-2,2.432346344E-2,1.330341697E-1
2.672049570E-1,6.814682484E-2,3.483295441E-2,1.631947756E-1
2.719824050E-1,8.086585999E-2,1.114273071E-2,1.959817410E-1
2.767599050E-1,8.927679062E-2,1.310729980E-2,2.022427917E-1
2.815373530E-1,1.182007790E-1,4.459381104E-3,1.194024086E-2
2.863148010E-1,8.387351036E-2,2.474880219E-2,-6.339257956E-2
2.910923010E-1,3.846406937E-3,1.359939575E-2,-1.895284057E-1
2.958697490E-1,-6.541860104E-2,-2.601623535E-3,-2.663654685E-1
3.006472490E-1,-1.102056503E-1,1.202487946E-2,-2.119673491E-1
3.054246970E-1,-1.038891077E-1,8.771896362E-3,-2.048934698E-1
3.102021440E-1,-2.311623096E-2,-1.673316956E-2,-1.490197778E-1
3.149796440E-1,4.865181446E-2,-2.120590210E-2,-5.554121733E-2
3.197570920E-1,9.408330917E-2,-1.087760925E-2,1.397132874E-2
3.245345400E-1,1.141554117E-1,2.814292908E-3,6.589120626E-2
3.293120400E-1,8.402407169E-2,1.628494263E-2,1.142764091E-1
3.340894880E-1,5.443727970E-2,4.071617126E-2,1.256105304E-1
3.388669880E-1,2.354466915E-2,3.884315491E-2,1.323509812E-1
3.436444360E-1,4.353404045E-3,4.936218262E-2,1.345031261E-1
3.484218840E-1,2.379941940E-2,4.736137390E-2,1.409451365E-1
3.531993840E-1,3.944349289E-2,3.596687317E-2,1.268569231E-1
3.579768320E-1,7.849276066E-2,2.357292175E-2,1.013309360E-1
3.627542800E-1,8.462095261E-2,3.200817108E-2,9.798341990E-2
3.675317800E-1,1.013928652E-1,2.089023590E-2,1.035580635E-1
3.723092280E-1,1.186772585E-1,5.301189423E-2,8.835858107E-2
3.770867280E-1,1.234176159E-1,5.758190155E-2,7.504439354E-2
3.818641760E-1,1.193716526E-1,4.677867889E-2,5.369794369E-2
3.866416240E-1,9.773254395E-2,3.202342987E-2,3.247112036E-2
3.914191240E-1,9.303247929E-2,2.221488953E-2,2.328854799E-2
3.961965720E-1,8.732140064E-2,5.033969879E-2,8.258223534E-3
4.009740190E-1,8.240818977E-2,5.686664581E-2,-2.778047323E-2
4.057515190E-1,6.589388847E-2,2.379035950E-2,-3.334492445E-2
4.105289670E-1,8.103442192E-2,7.117271423E-3,-5.074751377E-2
4.153064670E-1,5.878245831E-2,6.611824036E-3,-8.163857460E-2
4.200839150E-1,5.048191547E-2,1.145267487E-2,-7.386213541E-2
4.248613630E-1,5.779016018E-2,-7.970809937E-3,-6.967306137E-2
4.296388630E-1,5.262434483E-2,1.717472076E-2,-7.099646330E-2
4.344163110E-1,6.948935986E-2,-5.828857422E-3,-6.232452393E-2
4.391937590E-1,6.083369255E-2,-2.204036713E-2,-6.149417162E-2
4.439712590E-1,6.475579739E-2,-2.563858032E-2,-6.307727098E-2
4.487487070E-1,5.094361305E-2,-1.795387268E-2,-5.404329300E-2
4.535262070E-1,4.671001434E-2,-2.336883545E-2,-3.930336237E-2
4.583036550E-1,4.130065441E-2,-3.937625885E-2,-1.471996307E-2
4.630811030E-1,5.250179768E-2,-4.160022736E-2,2.308547497E-2
4.678586030E-1,5.412709713E-2,-5.563163757E-2,4.979920387E-2
4.726360510E-1,5.810225010E-2,-5.531978607E-2,8.632761240E-2
4.774134990E-1,3.542554379E-2,-3.905487061E-2,1.173167825E-1
4.821909990E-1,2.777826786E-2,-1.291084290E-2,1.527149677E-1
4.869684470E-1,2.556025982E-2,-4.828453064E-3,1.768741012E-1
4.917459470E-1,2.518987656E-2,-1.045989990E-2,2.004956007E-1
4.965233940E-1,4.106402397E-3,-1.073265076E-2,2.099984288E-1
5.013008420E-1,5.668520927E-3,-1.566886902E-3,2.084407210E-1
5.060783420E-1,2.853548527E-2,1.220607758E-2,1.878279448E-1
5.108557900E-1,2.039480209E-2,3.327369690E-3,1.693875194E-1
5.156332380E-1,2.363586426E-2,4.594802856E-3,1.395179033E-1
5.204107380E-1,3.746509552E-3,-2.141284943E-2,1.024738550E-1
5.251881860E-1,5.862355232E-3,-3.475761414E-2,7.599478960E-2
5.299656340E-1,-8.659482002E-3,-2.961730957E-2,2.727597952E-2
5.347431340E-1,-2.614402771E-2,-1.921463013E-2,-2.756112814E-2
5.395205820E-1,-5.718946457E-2,-1.306152344E-2,-5.481028557E-2
5.442980820E-1,-7.565140724E-2,3.693580627E-3,-7.852649689E-2
5.490755300E-1,-8.340871334E-2,-2.118587494E-2,-8.926779032E-2
5.538529780E-1,-6.572592258E-2,-1.264953613E-2,-9.954339266E-2
5.586304780E-1,-4.354083538E-2,-1.840972900E-2,-8.864706755E-2
5.634079260E-1,-3.471398354E-2,-1.701259613E-2,-5.963689089E-2
5.681853740E-1,-2.549600601E-2,-1.208782196E-2,-5.230730772E-2
5.729628740E-1,-2.106249332E-2,-1.786994934E-2,-4.449117184E-2
5.777403220E-1,-7.462501526E-5,-6.421089172E-3,-4.265904427E-4
5.825178220E-1,-3.049254417E-3,6.691932678E-3,3.440779448E-2
5.872952690E-1,5.856394768E-3,-1.293563843E-2,6.314373016E-2
5.920727170E-1,1.108741760E-2,4.354476929E-3,9.591770172E-2
5.968502170E-1,2.567124367E-2,1.494312286E-2,1.357095242E-1
6.016276650E-1,3.654909134E-2,1.653862000E-2,1.959803104E-1
6.064051130E-1,7.085692883E-2,6.797790527E-3,2.618860006E-1
6.111826130E-1,8.722662926E-2,1.137256622E-2,2.943726778E-1
6.159600610E-1,9.295940399E-2,-1.257610321E-2,2.873424888E-1
6.207375090E-1,9.219419956E-2,-2.332878113E-2,2.277651429E-1
6.255150090E-1,8.246314526E-2,2.139091492E-3,2.101335526E-1
6.302924570E-1,6.987798214E-2,-1.713275909E-2,1.883887053E-1
6.350699050E-1,8.306074142E-2,-6.057739258E-2,7.179147005E-2
6.398474050E-1,7.897174358E-2,-7.699108124E-2,-1.356005669E-4
6.446248530E-1,5.290663242E-2,-2.684688568E-2,-2.504920959E-2
6.494023530E-1,4.057919979E-2,9.164810181E-4,-9.610104561E-2
6.541798010E-1,4.966890812E-2,1.066493988E-2,-1.430531740E-1
6.589572490E-1,6.995546818E-2,8.481025696E-3,-2.069602609E-1
6.637347490E-1,7.465648651E-2,-1.937866211E-3,-2.572889924E-1
6.685121970E-1,5.969250202E-2,-9.845733643E-3,-3.132327795E-1
6.732896440E-1,2.840757370E-4,-3.387451172E-3,-3.500910997E-1
6.780671440E-1,-5.390202999E-2,-3.015232086E-2,-3.481492698E-1
6.828445920E-1,-1.196318865E-1,-4.302883148E-2,-3.301924169E-1
6.876220400E-1,-1.398620605E-1,-3.147125244E-2,-3.026428223E-1
6.923995400E-1,-1.202900410E-1,-5.146694183E-2,-2.462869883E-1
6.971769880E-1,-7.665157318E-2,-5.350112915E-2,-2.066096663E-1
7.019544360E-1,-2.747690678E-2,-1.043415070E-2,-1.406280398E-1
7.067319360E-1,2.302885056E-2,1.862812042E-2,-7.051932812E-2
7.115093840E-1,7.618010044E-2,3.322696686E-2,-9.883642197E-3
7.162868840E-1,9.641218185E-2,2.221965790E-2,7.224357128E-2
7.210643320E-1,1.011817455E-1,1.961898804E-2,1.407868862E-1
7.258417800E-1,9.296929836E-2,2.712631226E-2,1.763561368E-1
7.306192800E-1,8.370351791E-2,4.346561432E-2,1.892824769E-1
7.353967280E-1,5.323886871E-2,2.644157410E-2,1.863448620E-1
7.401741760E-1,2.651405334E-2,1.843261719E-2,1.693530679E-1
7.449516760E-1,7.675170898E-3,-4.952430725E-3,1.330676079E-1
7.497291240E-1,-2.417433262E-2,-1.095962524E-2,7.276058197E-2
7.545065720E-1,-4.454207420E-2,5.612373352E-3,2.487534285E-2
7.592840720E-1,-3.459250927E-2,-1.889801025E-2,-2.685397863E-2
7.640615190E-1,-1.889276505E-2,-1.947498322E-2,-6.886506081E-2
7.688389670E-1,-1.220715046E-2,-1.766204834E-2,-9.229022264E-2
7.736164670E-1,1.273453236E-2,-2.120780945E-2,-9.960359335E-2
7.783939150E-1,5.593514442E-2,-3.241729736E-2,-8.201950788E-2
7.831714150E-1,6.847715378E-2,-3.462505341E-2,-8.140522242E-2
7.879488630E-1,8.454954624E-2,-9.522438049E-3,-3.975486755E-2
7.927263110E-1,9.878504276E-2,-1.605606079E-2,-1.683974266E-2
7.975038110E-1,9.452271461E-2,8.904457092E-3,5.350768566E-3
8.022812590E-1,9.507322311E-2,-2.092170715E-2,2.209967375E-2
8.070587070E-1,8.555603027E-2,-1.491165161E-2,3.230768442E-2
8.118362070E-1,4.172825813E-2,-5.912780762E-5,4.609972239E-2
8.166136550E-1,3.331637383E-2,2.207756042E-3,3.087264299E-2
8.213911030E-1,2.260720730E-2,9.188652039E-3,2.363842726E-2
8.261686030E-1,8.394479752E-3,1.075839996E-2,2.252256870E-2
8.309460510E-1,2.224040031E-2,-1.200103760E-2,1.553261280E-2
8.357234990E-1,2.762722969E-2,-5.505561829E-3,1.746219397E-2
8.405009990E-1,1.815962791E-2,2.229404449E-2,2.234816551E-2
8.452784470E-1,2.362585068E-2,3.206443787E-2,2.132958174E-2
8.500558940E-1,1.901614666E-2,3.227710724E-2,3.804576397E-2
8.548333940E-1,2.688276768E-2,3.366851807E-2,4.279839993E-2
8.596108420E-1,1.631450653E-2,4.929828644E-2,5.035078526E-2
8.643883420E-1,2.845144272E-2,2.031040192E-2,6.624704599E-2
8.691657900E-1,4.222202301E-2,1.706409454E-2,8.440804482E-2
8.739432380E-1,4.756569862E-2,1.993179321E-4,1.119076610E-1
8.787207380E-1,5.352127552E-2,1.848220825E-2,1.398280263E-1
8.834981860E-1,5.412423611E-2,7.535934448E-3,1.516961455E-1
8.882756340E-1,5.010008812E-2,1.446437836E-2,2.627372742E-2
8.930531340E-1,1.872336864E-2,3.023815155E-2,-6.396615505E-2
8.978305820E-1,-4.200315475E-2,3.229331970E-2,-5.204403400E-2
9.026080300E-1,-8.976328373E-2,-1.011466980E-2,-1.487718225E-1
9.073855300E-1,-9.325635433E-2,-2.961921692E-2,-2.187550068E-1
9.121629780E-1,-9.687948227E-2,-6.257057190E-3,-1.703805923E-1
9.169404260E-1,-7.160985470E-2,6.215095520E-3,-8.524394035E-2
9.217179260E-1,9.823679924E-3,1.989364624E-3,-2.294719219E-2
9.264953740E-1,7.575154305E-2,1.362800598E-3,3.405374289E-2
9.312728220E-1,9.202253819E-2,6.093978882E-3,9.423917532E-2
9.360503220E-1,7.499814034E-2,8.405685425E-3,1.500030160E-1
9.408277690E-1,6.296110153E-2,-1.363468170E-2,1.718435287E-1
9.456052690E-1,2.619171143E-2,-2.007865906E-2,1.861392260E-1
9.503827170E-1,2.056908607E-2,-1.760578156E-2,1.953852177E-1
9.551601650E-1,-7.568717003E-3,-1.636505127E-2,1.989264488E-1
9.599376650E-1,2.024519444E-2,-7.450103760E-3,1.646959782E-1
9.647151130E-1,3.722119331E-2,-1.285076141E-2,1.410604715E-1
9.694925610E-1,4.865098000E-2,-1.703357697E-2,1.199986339E-1
9.742700610E-1,6.185150146E-2,-1.584053040E-3,9.252983332E-2
9.790475090E-1,8.392155170E-2,2.264690399E-2,7.776087523E-2
9.838249570E-1,5.602264404E-2,1.011848450E-3,5.949300528E-2
9.886024570E-1,4.381704330E-2,-1.805591583E-2,2.941274643E-2
9.933799050E-1,3.051626682E-2,2.186775208E-3,1.342475414E-3
9.981573530E-1,1.790988445E-2,-1.035308838E-2,-2.251183987E-2
1.002934853E0,7.185220718E-3,-2.455711365E-2,-2.913254499E-2
1.007712301E0,4.906654358E-3,-3.744220734E-2,-3.336340189E-2
1.012489749E0,2.220010757E-2,-4.962539673E-2,-2.934056520E-2
1.017267249E0,3.468263149E-2,-4.684352875E-2,-5.229985714E-2
1.022044697E0,4.178154469E-2,-2.449417114E-2,-4.664963484E-2
1.026822144E0,3.468430042E-2,3.629684448E-3,-4.236239195E-2
1.031599644E0,-7.761716843E-4,2.144622803E-2,-3.400528431E-2
1.036377092E0,-6.257414818E-3,1.420783997E-2,-1.628500223E-2
1.041154540E0,-2.179241180E-2,9.994506836E-3,-8.228302002E-3
1.045932040E0,-2.062225342E-2,-7.133483887E-4,-2.399510145E-2
1.050709488E0,-1.470863819E-2,-7.773399353E-3,-1.647311449E-2
1.055486936E0,-8.869767189E-3,-7.644653320E-3,-1.929962635E-2
1.060264436E0,-2.253055573E-5,-2.053928375E-2,-1.455175877E-2
1.065041884E0,1.177525520E-2,-3.389835358E-2,-8.802533150E-3
1.069819332E0,7.491230965E-3,-5.425548553E-2,9.327828884E-3
1.074596832E0,5.560040474E-3,-1.927280426E-2,2.299278975E-2
1.079374280E0,1.318347454E-2,-1.304149628E-2,4.181200266E-2
1.084151728E0,9.439945221E-3,2.628326416E-3,6.159365177E-2
1.088929228E0,1.765573025E-2,-1.988410950E-3,7.288789749E-2
1.093706676E0,4.124951363E-2,-6.569862366E-3,7.764798403E-2
1.098484124E0,6.471729279E-2,1.498699188E-2,8.372575045E-2
1.103261103E0,5.076217651E-2,2.451801300E-2,5.842387676E-2
1.108039072E0,4.223179817E-2,2.565288544E-2,2.865701914E-2
1.112816519E0,2.430677414E-2,1.610088348E-2,1.698100567E-2
1.117594019E0,1.426923275E-2,7.009506226E-4,5.411863327E-3
1.122371467E0,7.299304008E-3,-2.583408356E-2,-1.382142305E-2
1.127148915E0,-1.385450363E-3,-1.416873932E-2,-6.570845842E-2
1.131926415E0,-1.643288136E-2,-2.095890045E-2,-7.285445929E-2
1.136703863E0,-4.858005047E-2,-7.506370544E-3,-1.039480567E-1
1.141481311E0,-8.350276947E-2,-3.449344635E-2,-1.072064042E-1
1.146258811E0,-7.783639431E-2,-4.106426239E-2,-1.042774320E-1
1.151036259E0,-8.413887024E-2,-2.029514313E-2,-9.433960915E-2
1.155813707E0,-7.324457169E-2,-2.045822144E-2,-8.172500134E-2
1.160591207E0,-5.712211132E-2,-1.290702820E-2,-4.908424616E-2
1.165368655E0,-4.644632339E-2,-4.814147949E-3,-1.442611217E-2
1.170146103E0,-2.577090263E-2,-5.093574524E-3,7.509469986E-3
1.174923603E0,-2.662587166E-2,-4.790306091E-3,3.653556108E-2
1.179701051E0,-2.447962761E-2,1.436233521E-3,6.309390068E-2
1.184478499E0,-1.167476177E-2,-9.608268738E-3,1.038833261E-1
1.189255999E0,9.956717491E-3,6.714820862E-3,1.433851123E-1
1.194033447E0,2.009510994E-2,5.088806152E-3,1.773357987E-1
1.198810894E0,3.548288345E-2,2.422809601E-2,2.081775665E-1
1.203588394E0,3.648281097E-2,3.251552582E-2,2.471882105E-1
1.208365842E0,3.997325897E-2,2.294445038E-2,2.392110825E-1
1.213143290E0,3.299188614E-2,-6.709098816E-3,2.210350037E-1
1.217920790E0,1.841366291E-2,-2.903366089E-2,1.709719300E-1
1.222698238E0,-1.438188553E-2,2.771377563E-3,1.059105396E-1
1.227475686E0,-1.677107811E-2,2.654647827E-2,1.183033586E-1
1.232253186E0,2.009320259E-2,-1.691532135E-2,6.202179193E-2
1.237030634E0,3.712725639E-2,-4.222297668E-2,4.623651505E-3
1.241808082E0,3.864240646E-2,-3.290462494E-2,-4.754370451E-2
1.246585582E0,6.683599949E-2,-2.068233490E-2,-7.219940424E-2
1.251363030E0,6.045579910E-2,-2.605438232E-3,-9.976774454E-2
1.256140478E0,5.473482609E-2,-8.964538574E-5,-1.414785385E-1
1.260917978E0,1.063311100E-2,-3.474235535E-3,-2.175988555E-1
1.265695426E0,-4.920268059E-2,9.229660034E-3,-2.718820572E-1
1.270472874E0,-1.098347902E-1,1.534175873E-2,-2.991570532E-1
1.275250374E0,-1.570707560E-1,4.224777222E-3,-3.185796738E-1
1.280027822E0,-1.708940268E-1,-3.829956055E-3,-3.235007823E-1
1.284805269E0,-1.858720779E-1,-8.254051208E-3,-2.841377258E-1
1.289582769E0,-1.848535538E-1,-1.087856293E-2,-2.291900516E-1
1.294360217E0,-1.245806217E-1,-9.930610657E-3,-1.675958037E-1
1.299137665E0,-7.259595394E-2,-1.434803009E-2,-1.005190015E-1
1.303915165E0,-2.867054939E-2,1.865863800E-2,-3.755789995E-2
1.308692613E0,3.514361382E-2,1.936340332E-2,1.904958487E-2
1.313470061E0,6.525206566E-2,4.643440247E-3,5.151766539E-2
1.318247561E0,7.752192020E-2,1.854991913E-2,9.747147560E-2
1.323025009E0,6.843221188E-2,2.759742737E-2,1.212920547E-1
1.327802457E0,3.700327873E-2,1.641273499E-2,1.313676238E-1
1.332579957E0,1.295399666E-2,1.599216461E-2,1.189370155E-1
1.337357405E0,-1.931571960E-2,2.978515625E-2,9.483373165E-2
1.342134853E0,-3.415560722E-2,2.388572693E-2,6.254327297E-2
1.346912353E0,-5.185925961E-2,9.139060974E-3,3.341978788E-2
1.351689801E0,-7.962846756E-2,9.330749512E-3,-2.663075924E-3
1.356467249E0,-8.055353165E-2,3.147315979E-2,-4.460358620E-2
1.361244749E0,-6.202840805E-2,1.216888428E-3,-7.567006350E-2
1.366022197E0,-5.851984024E-2,-3.269195557E-3,-8.293330669E-2
1.370799644E0,-2.128100395E-2,2.956390381E-3,-7.597643137E-2
1.375577144E0,-3.830313683E-3,-1.279258728E-2,-5.610954762E-2
1.380354592E0,2.804875374E-3,-3.850746155E-2,-3.092181683E-2
1.385132040E0,1.178967953E-2,-1.832103729E-2,5.503892899E-4
1.389909540E0,2.899777889E-2,-4.835128784E-3,1.229244471E-2
1.394686988E0,5.183577538E-3,-1.341247559E-2,3.472656012E-2
1.399464436E0,-1.367545128E-2,-5.904197693E-3,4.399687052E-2
1.404241936E0,-2.711808681E-2,1.517295837E-3,5.390232801E-2
1.409019384E0,-5.234014988E-2,6.497383118E-3,6.256639957E-2
1.413796832E0,-5.487966537E-2,-6.387710571E-3,5.768853426E-2
1.418574332E0,-5.321896076E-2,-6.114959717E-3,4.284054041E-2
1.423351780E0,-3.977024555E-2,1.311779022E-2,3.652274609E-2
1.428129228E0,-4.311382771E-2,7.849693298E-3,3.568989038E-2
1.432906676E0,-5.293035507E-2,-9.393692017E-4,2.726924419E-2
1.437684176E0,-5.083787441E-2,2.534008026E-2,2.543115616E-2
1.442461624E0,-5.415523052E-2,1.697158813E-2,7.123768330E-3
1.447239124E0,-5.338335037E-2,8.661270142E-3,2.037858963E-2
1.452016572E0,-4.845631123E-2,8.138656616E-3,1.328188181E-2
1.456794019E0,-4.120957851E-2,-1.289367676E-3,2.653145790E-2
1.461571467E0,-3.521847725E-2,-5.512237549E-4,5.089718103E-2
1.466348967E0,-1.746153831E-2,5.504608154E-3,6.800031662E-2
1.471126415E0,-1.877200603E-2,2.752590179E-2,9.580016136E-2
1.475903863E0,-1.760721207E-3,-7.014274597E-3,1.388587356E-1
1.480681363E0,2.095818520E-3,-1.399803162E-2,1.658866405E-1
1.485458811E0,1.191401482E-2,-5.522727966E-3,5.250465870E-2
1.490236259E0,2.700066566E-2,1.118755341E-2,-6.825637817E-2
1.495013759E0,9.857654572E-3,2.778816223E-2,-2.713447809E-2
1.499791207E0,8.309602737E-3,3.376007080E-3,-1.008582115E-1
1.504568655E0,-1.856946945E-2,-4.747772217E-2,-2.021031380E-1
1.509346155E0,-5.353355408E-2,-4.391956329E-2,-2.474027872E-1
1.514123603E0,-9.197449684E-2,-7.782936096E-3,-1.904990673E-1
1.518901051E0,-5.084872246E-2,-6.965637207E-3,-1.070860028E-1
1.523678551E0,1.247560978E-2,-1.561927795E-2,-6.919986010E-2
1.528455999E0,6.352639198E-2,-2.892398834E-2,-1.263684034E-2
1.533233447E0,7.993018627E-2,-7.688522339E-3,6.020081043E-2
1.538010894E0,6.655311584E-2,-1.690196991E-2,1.047766805E-1
1.542788394E0,4.210650921E-2,-1.418304443E-2,1.344702244E-1
1.547565842E0,7.592439651E-4,3.719329834E-4,1.428508759E-1
1.552343290E0,-4.080450535E-2,-3.618240356E-3,1.320151687E-1
1.557120790E0,-5.834078789E-2,1.315689087E-2,1.334157586E-1
1.561898238E0,-5.558407307E-2,1.885414124E-3,1.296741962E-1
1.566675686E0,-3.693008423E-2,-1.021385193E-3,1.155159473E-1
1.571453186E0,4.659771919E-3,2.615928650E-3,1.103310585E-1
1.576230634E0,3.048372269E-2,-2.087593079E-3,9.160065651E-2
1.581008082E0,5.789923668E-2,-8.096694946E-4,7.357597351E-2
1.585785582E0,5.193257332E-2,-3.679275513E-3,6.692665815E-2
1.590563030E0,5.148684978E-2,-4.717826843E-3,4.606497288E-2
1.595340478E0,5.472218990E-2,-9.756088257E-4,2.652627230E-2
1.600117978E0,3.544032574E-2,-2.157688141E-2,1.720261574E-2
1.604895426E0,2.937078476E-2,-2.422809601E-2,2.181529999E-2
1.609672874E0,1.767873764E-4,-4.916191101E-3,1.038992405E-2
1.614450374E0,-6.170749664E-3,-2.964973450E-3,1.039946079E-2
1.619227822E0,-1.658892632E-2,-2.237987518E-2,9.225904942E-3
1.624005269E0,-1.689374447E-2,-7.848739624E-3,-7.141888142E-3
1.628782717E0,-1.247262955E-2,7.751464844E-3,-1.100182533E-2
1.633560217E0,-2.235174179E-2,1.855850220E-3,-1.595193148E-2
1.638337665E0,-2.253282070E-2,7.888793945E-3,-2.610152960E-2
1.643115113E0,-4.525518417E-2,1.445770264E-2,-4.087126255E-2
1.647892613E0,-4.108369350E-2,8.521080017E-3,-6.029164791E-2
1.652670061E0,-5.532467365E-2,-6.257057190E-3,-6.419044733E-2
1.657447509E0,-4.985547066E-2,-7.254600525E-3,-6.994903088E-2
1.662225009E0,-6.282830238E-2,-1.121520996E-3,-6.088387966E-2
1.667002457E0,-3.594708443E-2,-5.112648010E-3,-5.559599400E-2
1.671779905E0,-4.131817818E-2,-1.933097839E-3,-4.756790400E-2
1.676557405E0,-2.177274227E-2,1.486206055E-2,-2.724301815E-2
1.681334853E0,-2.128446102E-2,6.030082703E-3,7.700324059E-3
1.686112301E0,-4.811286926E-3,-2.140998840E-3,2.635318041E-2
1.690889801E0,-2.174675465E-2,2.794265747E-3,4.665130377E-2
1.695667249E0,-3.079879284E-2,-3.582954407E-3,5.085164309E-2
1.700444697E0,-2.616119385E-2,-1.036643982E-3,6.119018793E-2
1.705222144E0,-5.184447765E-2,1.464843750E-3,6.928199530E-2
1.709999644E0,-4.707252979E-2,1.104640961E-2,5.495661497E-2
1.714777092E0,-4.877209663E-2,8.099555969E-3,6.277829409E-2
1.719554540E0,-6.243133545E-2,6.922721863E-3,5.764102936E-2
1.724332040E0,-5.577361584E-2,5.752563477E-3,4.079717398E-2
1.729109488E0,-4.741024971E-2,-1.439380646E-2,2.645629644E-2
1.733886936E0,-6.640958786E-2,-1.182937622E-2,5.697786808E-3
1.738664436E0,-3.189289570E-2,-9.289741516E-3,-1.854002476E-3
1.743441884E0,-2.319371700E-2,-1.922416687E-2,-4.682123661E-2
1.748219332E0,-1.221275330E-2,-3.204250336E-2,-5.881714821E-2
1.752996832E0,-3.048098087E-2,-1.984214783E-2,-8.508980274E-2
1.757774280E0,-2.478730679E-2,-6.027221680E-4,-1.112418771E-1
1.762551728E0,-3.458750248E-2,-1.771163940E-2,-1.158374548E-1
1.767329176E0,-3.669559956E-2,-1.925277710E-2,-1.271516681E-1
1.772106676E0,-3.523015976E-2,-1.364707947E-2,-1.183876395E-1
1.776884124E0,-5.637705326E-2,-2.053356171E-2,-1.087712049E-1
1.781661572E0,-5.197513103E-2,-2.025985718E-2,-8.096551895E-2
1.786439072E0,-5.884504318E-2,-4.552841187E-3,-5.226808786E-2
1.791216519E0,-4.610133171E-2,-1.435279846E-3,-2.680009604E-2
1.795993967E0,-5.361032486E-2,3.434181213E-3,-9.188115597E-3
1.800771467E0,-4.443633556E-2,3.517150879E-3,1.127344370E-2
1.805548915E0,-4.538679123E-2,5.372047424E-3,4.003340006E-2
1.810326363E0,-5.284321308E-2,6.017684937E-3,6.154590845E-2
1.815103811E0,-5.438303947E-2,1.078128815E-2,8.185660839E-2
1.819881311E0,-6.622076035E-3,3.271198273E-2,1.151095629E-1
1.824658759E0,1.327669621E-2,3.069210052E-2,1.493584514E-1
1.829436207E0,4.487478733E-2,2.333927155E-2,1.721667647E-1
1.834213707E0,6.618309021E-2,4.096889496E-2,2.084851265E-1
1.838991155E0,1.064944267E-1,1.633930206E-2,2.264649868E-1
1.843768603E0,1.116898060E-1,2.587318420E-3,1.914403439E-1
1.848546103E0,8.489346504E-2,1.500892639E-2,1.330746412E-1
1.853323551E0,4.235768318E-2,4.758834839E-3,1.307665706E-1
1.858100999E0,3.702962399E-2,-1.609611511E-2,8.785688877E-2
1.862878499E0,3.007352352E-2,-3.500270844E-2,-7.199227810E-3
1.867655947E0,2.728164196E-2,-2.115154266E-2,1.087111235E-2
1.872433394E0,3.273534775E-2,3.851890564E-3,-3.360939026E-2
1.877210894E0,3.408741951E-2,-8.102416992E-3,-1.223421693E-1
1.881988342E0,4.141211510E-2,-6.887435913E-3,-1.694996357E-1
1.886765790E0,4.879760742E-2,-6.223678589E-3,-2.130266428E-1
1.891543238E0,2.106559277E-2,-2.092456818E-2,-2.618146539E-1
1.896320738E0,-1.477766037E-2,-5.763053894E-3,-3.159579039E-1
1.901098186E0,-1.007454395E-1,-2.920341492E-2,-3.439520001E-1
1.905875634E0,-1.535065174E-1,-6.072616577E-2,-3.409231007E-1
1.910653134E0,-2.065800428E-1,-6.469154358E-2,-3.051320314E-1
1.915430582E0,-2.315007448E-1,-5.320835114E-2,-2.325328588E-1
1.920208030E0,-1.982109547E-1,-4.184913635E-2,-1.468684673E-1
1.924985530E0,-1.308995485E-1,-2.172565460E-2,-8.601373434E-2
1.929762978E0,-6.537151337E-2,-7.629394531E-6,-5.955338478E-3
1.934540426E0,-1.154112816E-2,3.814411163E-2,6.179106236E-2
1.939317926E0,2.645099163E-2,6.824970245E-2,1.090824008E-1
1.944095374E0,3.526270390E-2,6.965446472E-2,1.140143275E-1
1.948872822E0,2.276587486E-2,6.097316742E-2,1.190744638E-1
1.953650269E0,-6.205081940E-3,5.888366699E-2,1.093953848E-1
1.958427769E0,-3.845798969E-2,3.428459167E-2,1.038488746E-1
1.963205217E0,-7.181215286E-2,1.816844940E-2,6.623828411E-2
1.967982665E0,-7.238674164E-2,1.226425171E-2,2.814078331E-2
1.972760165E0,-6.824684143E-2,-4.251480103E-3,1.342058182E-3
1.977537613E0,-6.489920616E-2,-4.030227661E-3,-3.553581238E-2
1.982315061E0,-6.996417046E-2,3.471374512E-4,-2.964484692E-2
1.987092561E0,-6.664919853E-2,-1.249313354E-2,-3.288555145E-2
1.991870009E0,-5.150473118E-2,-2.676010132E-3,-2.612316608E-2
1.996647457E0,-6.917226315E-2,2.306842804E-2,-3.190052509E-2
2.001424905E0,-3.799021244E-2,2.546310425E-2,-2.207827568E-2
2.006202405E0,-3.672516346E-2,2.012634277E-2,-8.783102036E-3
2.010979853E0,-2.657032013E-2,-1.305675507E-2,1.045554876E-2
2.015757301E0,-1.354908943E-2,-1.514244080E-2,1.497405767E-2
2.020534801E0,-8.938908577E-3,-2.967548370E-2,3.319323063E-2
2.025312249E0,-6.203770638E-3,-4.054641724E-2,2.643495798E-2
2.030089697E0,-6.511688232E-3,-4.719161987E-2,7.965683937E-3
2.034867197E0,-1.454687119E-2,-2.058029175E-2,-1.197177172E-2
2.039644644E0,-2.377378941E-2,-2.800273895E-2,-1.587677002E-2
2.044422092E0,-2.756106853E-2,-1.578521729E-2,-2.388715744E-2
2.049199540E0,-2.962040901E-2,-7.247924805E-3,-2.644580603E-2
2.053977040E0,-1.984632015E-2,-1.749992371E-3,-3.856283426E-2
2.058754488E0,-1.785790920E-2,4.898071289E-3,-4.472529888E-2
2.063531936E0,-8.164286613E-3,2.751445770E-2,-4.256981611E-2
2.068309436E0,-5.701422691E-3,4.103088379E-2,-2.733403444E-2
2.073086884E0,1.955032349E-4,5.501651764E-2,-1.052594185E-2
2.077864332E0,2.329087257E-2,5.287075043E-2,1.274162531E-2
2.082641832E0,1.716792583E-2,3.235244751E-2,3.591418266E-2
2.087419280E0,2.299058437E-2,1.080989838E-2,4.482001066E-2
2.092196728E0,4.007232189E-2,-4.720687866E-4,6.564229727E-2
2.096974176E0,1.959145069E-2,-2.947425842E-2,9.647953510E-2
2.101751676E0,3.669047356E-2,-2.502441406E-2,1.171628833E-1
2.106529124E0,4.897212982E-2,-2.298831940E-2,1.675443053E-1
2.111306572E0,4.928505421E-2,-1.328468323E-2,1.863491535E-1
2.116084072E0,4.500448704E-2,-1.299858093E-3,1.105616093E-1
2.120861519E0,2.780163288E-2,1.117801666E-2,-6.761097908E-2
2.125638967E0,-2.556025982E-2,4.611492157E-2,-7.989037037E-2
2.130416415E0,-1.064299345E-1,3.334712982E-2,-2.291426659E-1
2.135193915E0,-1.332855225E-1,-2.674007416E-2,-3.135463595E-1
2.139971363E0,-1.500846148E-1,-1.694107056E-2,-2.730051875E-1
2.144748811E0,-1.099294424E-1,-4.250526428E-3,-2.195116878E-1
2.149526311E0,-2.274703979E-2,-2.961635590E-2,-1.561780572E-1
2.154303759E0,6.797420979E-2,-3.041839600E-2,-7.272112370E-2
2.159081207E0,1.230494976E-1,-4.543590546E-2,8.933603764E-3
2.163858655E0,1.130713224E-1,-1.169109344E-2,8.065658808E-2
2.168636155E0,8.187651634E-2,-7.297515869E-3,1.127628684E-1
2.173413603E0,4.213118553E-2,-5.331993103E-3,1.248435378E-1
2.178191051E0,3.336668015E-3,1.438236237E-2,1.152856946E-1
2.182968551E0,-1.736545563E-2,9.573936462E-3,1.281138659E-1
2.187745999E0,-1.178407669E-2,-8.859634399E-3,1.345616579E-1
2.192523447E0,1.331067085E-2,-3.439903259E-3,1.270124912E-1
2.197300894E0,3.583359718E-2,7.286071777E-4,1.156179905E-1
2.202078394E0,4.873979092E-2,-2.242183685E-2,9.076160192E-2
2.206855842E0,5.789506435E-2,-2.877902985E-2,6.483578682E-2
2.211633290E0,5.815231800E-2,-6.532669067E-4,3.432559967E-2
2.216410790E0,4.064917564E-2,1.716899872E-2,9.297549725E-3
2.221188238E0,2.395534515E-2,3.249454498E-2,-1.862281561E-2
2.225965686E0,1.569545269E-2,3.346443176E-2,-1.321554184E-2
2.230743134E0,-1.148390770E-2,5.935573578E-2,-1.334816217E-2
2.235520634E0,-1.994454861E-2,3.819370270E-2,-7.643759251E-3
2.240298082E0,-1.063728333E-2,2.669429779E-2,1.329159737E-2
2.245075530E0,-2.091801167E-2,8.766174316E-3,1.874637604E-2
2.249853030E0,-1.986300945E-2,-9.604454041E-3,3.360497952E-2
2.254630478E0,-8.706688881E-3,-9.438514709E-3,3.837406635E-2
2.259407926E0,-1.433205605E-2,-3.125095367E-2,6.105118990E-2
2.264185426E0,-1.105368137E-2,-3.657341003E-3,7.171541452E-2
2.268962874E0,-4.775166512E-3,1.746177673E-3,5.526280403E-2
2.273740322E0,-1.986825466E-2,-1.661682129E-2,4.071927071E-2
2.278517769E0,-1.464104652E-2,-6.357192993E-3,1.394689083E-2
2.283295269E0,-3.905689716E-2,1.984119415E-2,-8.979499340E-3
2.288072717E0,-4.197001457E-2,7.247924805E-4,-9.181857109E-3
2.292850165E0,-3.655064106E-2,-3.987312317E-3,-1.894247532E-2
2.297627665E0,-2.707624435E-2,-1.637554169E-2,-1.444756985E-2
2.302405113E0,-1.471579075E-2,-1.358032227E-3,-1.193642616E-2
2.307182561E0,-3.564357758E-5,2.273559570E-3,9.533226490E-3
2.311960061E0,1.440966129E-2,1.238632202E-2,3.429329395E-2
2.316737509E0,1.037859917E-2,1.233577728E-2,4.876703024E-2
2.321514957E0,2.239954472E-2,1.702404022E-2,4.896122217E-2
2.326292405E0,1.776516438E-2,2.101898193E-3,6.583142281E-2
2.331069905E0,1.321077347E-3,6.277084351E-3,6.136155128E-2
2.335847353E0,4.667401314E-3,-2.038955688E-3,5.351072550E-2
2.340624801E0,6.799697876E-3,-1.444911957E-2,5.355542898E-2
2.345402249E0,2.729284763E-2,-1.906394958E-2,7.395976782E-2
2.350179749E0,6.719112396E-3,-2.363491058E-2,6.990242004E-2
2.354957197E0,3.448724747E-3,-3.530597687E-2,7.067877054E-2
2.359734644E0,2.514719963E-3,-1.783657074E-2,6.862759590E-2
2.364512144E0,-1.099109650E-4,9.059906006E-5,8.091068268E-2
2.369289592E0,-1.760256290E-2,9.558677673E-3,9.181845188E-2
2.374067040E0,-2.609467506E-2,2.604579926E-2,6.833940744E-2
2.378844540E0,-1.321971416E-2,1.271247864E-2,6.359410286E-2
2.383621988E0,1.139736176E-2,-2.302169800E-3,5.067700148E-2
2.388399436E0,2.215909958E-2,-6.530761719E-3,5.347776413E-2
2.393176884E0,4.118883610E-2,-3.612518311E-3,4.577296972E-2
2.397954384E0,6.433033943E-2,-8.417129517E-3,2.457505465E-2
2.402731832E0,3.923797607E-2,-3.335094452E-2,-1.954114437E-2
2.407509280E0,2.378976345E-2,-5.096149445E-2,-6.514847279E-2
2.412286780E0,4.274845123E-3,-5.419063568E-2,-8.969134092E-2
2.417064228E0,-6.823658943E-3,-2.950286865E-2,-1.035343409E-1
2.421841676E0,-1.908576488E-2,-1.332092285E-2,-8.723491430E-2
2.426619124E0,-1.353669167E-2,-1.209831238E-2,-7.189416885E-2
2.431396624E0,-9.285807610E-3,-3.175735474E-3,-5.799084902E-2
2.436174072E0,-1.863431931E-2,-7.949829102E-3,-3.421747684E-2
2.440951519E0,-2.203571796E-2,5.115509033E-3,-1.137381792E-2
2.445729019E0,-9.415626526E-3,-2.702903748E-2,3.629142046E-2
2.450506467E0,-2.602541447E-2,-1.798534393E-2,4.859805107E-2
2.455283915E0,-4.138529301E-2,-1.336097717E-3,5.622923374E-2
2.460061363E0,-2.882766724E-2,1.574134827E-2,6.983935833E-2
2.464838863E0,-1.399111748E-2,1.605224609E-2,7.164871693E-2
2.469616311E0,4.283344746E-2,2.466583252E-2,1.001330018E-1
2.474393759E0,6.426322460E-2,2.015590668E-2,1.190595627E-1
2.479171207E0,7.887542248E-2,2.218723297E-2,1.348710060E-1
2.483948707E0,9.580814838E-2,4.498577118E-2,1.765549779E-1
2.488726155E0,1.008061171E-1,4.208946228E-2,1.996168494E-1
2.493503603E0,1.047730446E-1,2.972507477E-2,2.039472461E-1
2.498281103E0,8.034944534E-2,3.108692169E-2,1.405134797E-1
2.503058551E0,5.078065395E-2,7.333850861E-2,1.200894713E-1
2.507835999E0,6.003761292E-2,3.631687164E-2,1.030994058E-1
2.512613447E0,6.350815296E-2,-9.277343750E-3,-2.496969700E-2
2.517390947E0,4.514181614E-2,-2.304744720E-2,-8.702808619E-2
2.522168394E0,1.910948753E-2,-7.059097290E-3,-1.118226647E-1
2.526945842E0,1.572895050E-2,-6.625175476E-3,-1.757955551E-1
2.531723342E0,2.189099789E-2,-8.277893066E-4,-2.044978142E-1
2.536500790E0,1.786792278E-2,-3.953933716E-3,-2.481582761E-1
2.541278238E0,6.263136864E-3,1.921653748E-3,-3.010393977E-1
2.546055686E0,-3.919529915E-2,-2.278327942E-3,-3.426145017E-1
2.550833186E0,-7.546007633E-2,1.449584961E-4,-3.438491225E-1
2.555610634E0,-1.067767143E-1,-2.055072784E-2,-3.344832361E-1
2.560388082E0,-1.427681446E-1,-4.996871948E-2,-2.740718126E-1
2.565165582E0,-1.375571489E-1,-6.430244446E-2,-2.119613290E-1
2.569943030E0,-1.075936556E-1,-6.667232513E-2,-1.545625925E-1
2.574720478E0,-7.212793827E-2,-4.296875000E-2,-8.858138323E-2
2.579497926E0,-2.088391781E-2,7.818222046E-3,-2.173537016E-2
2.584275426E0,2.642774582E-2,4.513168335E-2,2.923732996E-2
2.589052874E0,7.831823826E-2,4.479885101E-2,7.808196545E-2
2.593830322E0,1.180019379E-1,2.964305878E-2,1.266859174E-1
2.598607822E0,1.172708273E-1,3.362274170E-2,1.520107388E-1
2.603385269E0,7.274627686E-2,2.570533752E-2,1.625374556E-1
2.608162717E0,1.844382286E-2,2.376174927E-2,1.380996108E-1
2.612940165E0,-2.478682995E-2,7.583618164E-3,9.313255548E-2
2.617717665E0,-7.075333595E-2,1.940250397E-2,4.966646433E-2
2.622495113E0,-1.045995951E-1,2.398777008E-2,1.417446136E-2
2.627272561E0,-1.175473928E-1,1.784801483E-2,-3.488832712E-2
2.632050009E0,-1.233797073E-1,4.844665527E-4,-6.894332170E-2
2.636827509E0,-9.663653374E-2,-1.554012299E-2,-9.650492668E-2
2.641604957E0,-7.615876198E-2,-1.363563538E-2,-1.187354922E-1
2.646382405E0,-3.335309029E-2,-1.114654541E-2,-1.047948003E-1
2.651159905E0,-2.135276794E-3,-1.755619049E-2,-6.262814999E-2
2.655937353E0,2.416038513E-2,-2.329444885E-2,-2.449131012E-2
2.660714801E0,5.625796318E-2,-2.126026154E-2,1.043468714E-2
2.665492249E0,7.034575939E-2,-2.221107483E-2,6.598389149E-2
2.670269749E0,8.849120140E-2,-1.221656799E-3,1.035206318E-1
2.675047197E0,5.608868599E-2,1.008892059E-2,1.154423356E-1
2.679824644E0,4.230499268E-2,6.438255310E-3,1.181032062E-1
2.684602092E0,4.415392876E-2,1.468563080E-2,1.120446324E-1
2.689379592E0,1.450765133E-2,-3.013610840E-4,1.045135856E-1
2.694157040E0,9.427547455E-3,1.388549805E-2,8.896118402E-2
2.698934488E0,1.204061508E-2,1.239776611E-3,6.472623348E-2
2.703711988E0,2.116680145E-2,-1.486682892E-2,5.147409439E-2
2.708489436E0,2.669072151E-2,-2.728652954E-2,2.719730139E-2
2.713266884E0,3.571653366E-2,-2.714061737E-2,1.669001579E-2
2.718044384E0,6.180500984E-2,-2.937793732E-2,5.062937737E-3
2.722821832E0,5.985689163E-2,4.434585571E-4,7.817149162E-3
2.727599280E0,6.098985672E-2,1.580810547E-2,2.146542072E-3
2.732376728E0,5.624353886E-2,1.681804657E-2,2.084374428E-2
2.737154228E0,3.978192806E-2,7.758140564E-3,4.114836454E-2
2.741931676E0,3.886711597E-2,1.182174683E-2,7.137137651E-2
2.746709124E0,4.756200314E-2,-1.082611084E-2,8.891957998E-2
2.751486572E0,4.959750175E-2,-6.019592285E-3,1.206935644E-1
2.756264072E0,4.935967922E-2,-1.726627350E-2,1.524138451E-1
2.761041519E0,5.147612095E-2,-1.181030273E-2,1.761285663E-1
2.765818967E0,4.172444344E-2,-4.046440125E-3,1.500719786E-1
2.770596467E0,1.200163364E-2,-3.469467163E-3,-2.197355032E-2
2.775373915E0,-4.010462761E-2,-4.061698914E-3,-4.236978292E-2
2.780151363E0,-4.984271526E-2,-1.708412170E-2,-5.202376842E-2
2.784928811E0,-7.248020172E-2,-4.595947266E-2,-1.427478194E-1
2.789706311E0,-7.771515846E-2,-1.941204071E-2,-1.966609955E-1
2.794483759E0,-6.466853619E-2,-1.386260986E-2,-1.269190311E-1
2.799261207E0,-1.029956341E-2,-2.082824707E-2,-4.419559240E-2
2.804038655E0,5.496335030E-2,-1.822185516E-2,-1.983880997E-3
2.808816155E0,1.049839258E-1,-2.037334442E-2,6.437700987E-2
2.813593603E0,1.066015959E-1,-1.159667969E-3,1.369503736E-1
2.818371051E0,7.381772995E-2,-2.291679382E-3,1.646674275E-1
2.823148499E0,3.244483471E-2,-1.412868500E-2,1.677271128E-1
2.827925999E0,9.870529175E-4,-3.757476807E-4,1.723312140E-1
2.832703447E0,-1.303017139E-2,-1.049709320E-2,1.754394770E-1
2.837480894E0,-2.575302124E-2,-1.462650299E-2,1.508824825E-1
2.842258394E0,-5.114078522E-4,-6.882667542E-3,1.194750667E-1
2.847035842E0,-6.369590759E-3,-2.115821838E-2,9.483373165E-2
2.851813290E0,8.772611618E-4,-1.928234100E-2,7.616341114E-2
2.856590738E0,1.627480984E-2,3.719329834E-4,6.221395731E-2
2.861368238E0,1.550412178E-2,-1.481056213E-3,5.589616299E-2
2.866145686E0,1.298320293E-2,1.864433289E-2,4.299670458E-2
2.870923134E0,1.705455780E-2,1.785945892E-2,3.898108006E-2
2.875700582E0,3.051507473E-2,4.021644592E-3,2.900320292E-2
2.880478082E0,1.957428455E-2,-1.381874084E-3,1.903080940E-2
2.885255530E0,1.761221886E-2,3.709793091E-4,3.235191107E-2
2.890032978E0,3.209829330E-3,-2.101993561E-2,1.223367453E-2
2.894810478E0,-8.049368858E-3,-1.909065247E-2,1.132053137E-2
2.899587926E0,-9.742259979E-3,-2.488708496E-2,-6.260931492E-3
2.904365374E0,-1.023209095E-2,-1.580810547E-2,-2.278029919E-3
2.909142822E0,-2.438068390E-2,-5.025863647E-3,-9.057044983E-3
2.913920322E0,-2.594637871E-2,-1.568508148E-2,-2.528345585E-2
2.918697769E0,-2.218699455E-2,-6.098747253E-3,-1.697546244E-2
2.923475217E0,-1.732730865E-2,3.403663635E-3,-1.830822229E-2
2.928252717E0,-4.837393761E-3,-3.800392151E-3,-2.425879240E-2
2.933030165E0,1.471602917E-2,3.442764282E-4,-2.135926485E-2
2.937807613E0,1.632130146E-2,1.394653320E-2,-1.372087002E-2
2.942585061E0,1.202738285E-2,1.321887970E-2,-3.593212366E-2
2.947362561E0,2.135467529E-2,1.485919952E-2,-3.661620617E-2
2.952140009E0,3.889858723E-2,-3.087997437E-3,-3.617876768E-2
2.956917457E0,5.570125580E-2,-2.799510956E-2,-3.169000149E-2
2.961694905E0,6.349003315E-2,-3.251361847E-2,-3.443223238E-2
2.966472405E0,6.356227398E-2,-1.740360260E-2,-2.711033821E-2
2.971249853E0,5.652379990E-2,1.361083984E-2,-6.940186024E-3
2.976027301E0,3.821480274E-2,9.366035461E-3,-9.936094284E-5
2.980804749E0,3.554868698E-2,1.227760315E-2,-4.467546940E-3
2.985582249E0,3.703033924E-2,2.585029602E-2,8.253037930E-3
2.990359697E0,2.663505077E-2,2.566814423E-2,1.313519478E-2
2.995137144E0,3.294432163E-2,4.127502441E-3,7.361590862E-3
2.999914592E0,1.433360577E-2,7.098197937E-3,1.882582903E-2
3.004692092E0,1.781678200E-2,-7.160186768E-3,3.076815605E-2
3.009469540E0,5.256891251E-3,-2.070903778E-2,2.486193180E-2
3.014246988E0,2.832818031E-2,-1.162242889E-2,2.026164532E-2
3.019024488E0,3.158867359E-2,-1.685047150E-2,1.503551006E-2
3.023801936E0,2.176606655E-2,-3.643035889E-3,-1.508766413E-2
3.028579384E0,1.973962784E-2,1.953887939E-2,-4.141581059E-2
3.033356884E0,2.787148952E-2,1.111030579E-2,-4.925930500E-2
3.038134332E0,1.812827587E-2,1.403236389E-2,-6.785917282E-2
3.042911780E0,1.206457615E-2,8.643150330E-3,-8.344560862E-2
3.047689228E0,2.975702286E-3,-1.331615448E-2,-1.092036366E-1
3.052466728E0,1.052141190E-3,-3.389358521E-2,-9.875303507E-2
3.057244176E0,1.510739326E-3,-2.819061279E-2,-7.959169149E-2
3.062021624E0,2.565467358E-2,-1.305007935E-2,-6.949061155E-2
3.066799072E0,2.114987373E-2,6.121635437E-3,-3.042376041E-2
3.071576572E0,8.384346962E-3,2.157783508E-2,5.937814713E-3
3.076354019E0,-9.041905403E-3,1.613426208E-2,2.959072590E-2
3.081131467E0,-1.859843731E-2,4.796028137E-3,3.713148832E-2
3.085908915E0,-2.095890045E-2,1.015186310E-2,4.476130009E-2
3.090686415E0,-2.398860455E-2,1.201629639E-3,6.720322371E-2
3.095463863E0,2.647638321E-3,-5.655288696E-4,9.784734249E-2
3.100241311E0,3.316783905E-2,2.318191528E-2,1.181491017E-1
3.105018759E0,4.324686527E-2,3.901386261E-2,1.472051740E-1
3.109796259E0,6.636989117E-2,2.208423615E-2,1.857186556E-1
3.114573707E0,5.373370647E-2,-6.573677063E-3,2.008805275E-1
3.119351155E0,5.851376057E-2,-3.500461578E-2,1.961160898E-1
3.124128655E0,5.213069916E-2,-3.652954102E-2,1.326892972E-1
3.128906103E0,1.906943321E-2,4.682540894E-4,9.637504816E-2
3.133683551E0,2.842295170E-2,6.883621216E-3,1.175901890E-1
3.138460999E0,5.032646656E-2,-3.242778778E-2,3.455018997E-2
3.143238499E0,2.934277058E-2,-2.337074280E-2,-1.563721895E-2
3.148015947E0,1.316952705E-2,-2.537727356E-3,-4.236721992E-2
3.152793394E0,1.555931568E-2,2.733230591E-3,-1.160440445E-1
3.157570842E0,1.139068604E-2,-4.486083984E-3,-1.157121658E-1
3.162348342E0,1.432895660E-4,-3.671646118E-4,-1.207755208E-1
3.167125790E0,-1.220881939E-2,-5.737304688E-3,-2.098966241E-1
3.171903238E0,-5.295503139E-2,-2.700996399E-2,-2.451510429E-1
3.176680738E0,-1.071616411E-1,-3.680419922E-2,-2.606589198E-1
3.181458186E0,-1.415178776E-1,-2.810955048E-2,-2.724475265E-1
3.186235634E0,-1.524873972E-1,-3.489303589E-2,-2.547848225E-1
3.191013082E0,-1.522209644E-1,-5.528068542E-2,-2.088978291E-1
3.195790582E0,-1.449561119E-1,-3.636646271E-2,-1.556966305E-1
3.200568030E0,-1.076989174E-1,-3.249359131E-2,-9.326827526E-2
3.205345478E0,-5.882608891E-2,-1.364707947E-3,-4.366964102E-2
3.210122926E0,6.852149963E-3,2.831268311E-2,3.811419010E-3
3.214900426E0,5.312180519E-2,3.758716583E-2,6.407713890E-2
3.219677874E0,8.022010326E-2,3.731346130E-2,1.157056093E-1
3.224455322E0,7.696914673E-2,4.595851898E-2,1.278636456E-1
3.229232769E0,5.900359154E-2,4.800605774E-2,1.341705918E-1
3.234010269E0,1.632535458E-2,3.046512604E-2,1.238839626E-1
3.238787717E0,-2.725756168E-2,2.670288086E-2,9.349930286E-2
3.243565165E0,-4.625630379E-2,1.049804688E-2,5.500626564E-2
3.248342613E0,-5.982804298E-2,8.673667908E-3,2.313369513E-2
3.253120113E0,-6.629514694E-2,-1.272392273E-2,-3.870725632E-3
3.257897561E0,-5.209755898E-2,-1.922607422E-3,-2.608716488E-2
3.262675009E0,-7.715106010E-3,-1.372146606E-2,-5.133712292E-2
3.267452509E0,-2.018666267E-2,8.201599121E-5,-4.693907499E-2
3.272229957E0,-2.902507782E-3,1.022243500E-2,-4.272437096E-2
3.277007405E0,1.487302780E-2,2.491950989E-3,-4.212146997E-2
3.281784853E0,1.950371265E-2,1.144695282E-2,-2.907145023E-2
3.286562353E0,2.947545052E-2,1.913261414E-2,-1.476496458E-2
3.291339801E0,3.819799423E-2,3.031063080E-2,1.374894381E-2
3.296117249E0,4.748821259E-2,2.836227417E-3,4.213321209E-2
3.300894697E0,5.495178699E-2,2.185535431E-2,5.144727230E-2
3.305672197E0,5.176365376E-2,5.124092102E-3,7.449716330E-2
3.310449644E0,5.160021782E-2,1.575469971E-3,6.428843737E-2
3.315227092E0,5.197060108E-2,-6.114959717E-3,6.612551212E-2
3.320004592E0,2.816677094E-2,1.416110992E-2,6.385755539E-2
3.324782040E0,1.520884037E-2,5.187988281E-3,5.101335049E-2
3.329559488E0,2.434229851E-2,1.630783081E-3,4.426991940E-2
3.334336936E0,1.853430271E-2,-1.313209534E-3,5.127274990E-2
3.339114436E0,1.103234291E-2,-6.742477417E-4,2.743816376E-2
3.343891884E0,1.548516750E-2,1.598358154E-2,2.870458364E-2
3.348669332E0,1.396071911E-2,1.648426056E-2,3.411042690E-2
3.353446780E0,2.469182014E-3,7.507324219E-3,4.600125551E-2
3.358224280E0,2.494406700E-2,4.540443420E-3,4.603570700E-2
3.363001728E0,1.760292053E-2,-1.354217529E-3,6.199997663E-2
3.367779176E0,-3.410577774E-4,2.284049988E-3,6.490349770E-2
3.372556624E0,8.381605148E-4,8.257865906E-3,7.614374161E-2
3.377334124E0,-1.292717457E-2,-6.613731384E-3,9.454226494E-2
3.382111311E0,7.840156555E-3,-7.135391235E-3,1.307365298E-1
3.386889019E0,1.605498791E-2,1.608085632E-2,1.441962123E-1
3.391666519E0,1.545321941E-2,1.951026917E-2,9.930795431E-2
3.396443967E0,-3.440856934E-3,1.046371460E-2,-5.486929417E-2
3.401221415E0,-1.400136948E-2,-8.506774902E-4,-1.555281878E-2
3.405998863E0,-3.643476963E-2,-1.261901855E-2,-4.784846306E-2
3.410776363E0,-6.339931488E-2,-4.501819611E-2,-1.335630417E-1
3.415553811E0,-5.930221081E-2,-6.764888763E-2,-2.097721100E-1
3.420331259E0,-1.028313637E-1,-2.070713043E-2,-1.975795627E-1
3.425108707E0,-8.572459221E-2,-2.063751221E-3,-1.032231450E-1
3.429886207E0,-3.564596176E-3,-2.332019806E-2,-1.334446669E-2
3.434663655E0,7.911646366E-2,-3.015232086E-2,4.605925083E-2
3.439441103E0,1.126171350E-1,-1.377582550E-2,9.976363182E-2
3.444218551E0,1.145731211E-1,-1.353836060E-2,1.389903426E-1
3.448996051E0,7.985401154E-2,-6.784439087E-3,1.633767486E-1
3.453773499E0,3.366541862E-2,-1.671886444E-2,1.654753089E-1
3.458550947E0,-4.479098320E-2,-2.284049988E-3,1.518709064E-1
3.463328447E0,-8.589303493E-2,-7.586479187E-3,1.469841003E-1
3.468105894E0,-1.250512600E-1,3.111839294E-3,1.305248141E-1
3.472883342E0,-9.400105476E-2,1.251411438E-2,1.183515191E-1
3.477660790E0,-4.442584515E-2,-1.379489899E-2,1.145819426E-1
3.482438290E0,-1.908278465E-2,-6.671905518E-3,8.764404058E-2
3.487215738E0,4.401493073E-2,-1.384735107E-3,7.749211788E-2
3.491993186E0,5.326187611E-2,9.155273438E-4,7.382148504E-2
3.496770634E0,6.841182709E-2,1.507663727E-2,6.418794394E-2
3.501548134E0,7.993435860E-2,2.260684967E-2,5.404239893E-2
3.506325582E0,7.425022125E-2,7.534980774E-3,5.657660961E-2
3.511103030E0,4.548203945E-2,1.809024811E-2,4.374933243E-2
3.515880530E0,3.230226040E-2,2.735233307E-2,2.811777592E-2
3.520657978E0,2.815628052E-2,2.347278595E-2,1.220399141E-2
3.525435426E0,2.942478657E-2,2.853202820E-2,-4.764199257E-3
3.530212874E0,4.243028164E-2,1.810073853E-2,-4.941403866E-3
3.534990322E0,4.473900795E-2,1.073074341E-2,-5.633473396E-3
3.539767822E0,3.811442852E-2,5.790710449E-3,-1.400864124E-2
3.544545269E0,2.677619457E-2,1.689147949E-2,-2.218276262E-2
3.549322717E0,3.337800503E-2,7.148742676E-3,-3.445339203E-2
3.554100165E0,3.639650345E-2,2.359294891E-2,-5.135285854E-2
3.558877665E0,1.566517353E-2,5.486488342E-3,-4.429942369E-2
3.563655113E0,1.641595364E-2,-1.247787476E-2,-3.731596470E-2
3.568432561E0,1.422953606E-2,-2.137947083E-2,-5.538529158E-2
3.573210061E0,1.200532913E-2,-1.123332977E-2,-4.780584574E-2
3.577987509E0,6.838440895E-3,4.758834839E-3,-5.627584457E-2
3.582764957E0,1.416730881E-2,-8.457183838E-3,-3.791493177E-2
3.587542405E0,1.313424110E-2,-7.972717285E-4,-4.524087906E-2
3.592319905E0,2.573335171E-2,1.866340637E-2,-3.475004435E-2
3.597097353E0,2.460658550E-2,1.066303253E-2,-2.715057135E-2
3.601874801E0,4.186141491E-2,2.763557434E-2,-3.083825111E-2
3.606652249E0,5.369639397E-2,2.430248260E-2,-3.323149681E-2
3.611429749E0,4.828345776E-2,1.507282257E-2,-2.725863457E-2
3.616207197E0,6.070160866E-2,3.023433685E-2,-4.263770580E-2
3.620984644E0,5.054044724E-2,3.696632385E-2,-4.472541809E-2
3.625762144E0,4.166901112E-2,2.525615692E-2,-4.915797710E-2
3.630539592E0,5.128920078E-2,1.662063599E-2,-6.489229202E-2
3.635317040E0,6.264650822E-2,1.222133636E-2,-6.808483601E-2
3.640094488E0,5.971240997E-2,4.910469055E-3,-4.347288609E-2
3.644871988E0,4.385113716E-2,1.132202148E-2,-3.863513470E-2
3.649649436E0,3.050649166E-2,1.673698425E-3,-2.681195736E-2
3.654426884E0,4.685831070E-2,-1.978015900E-2,-1.026052237E-2
3.659204332E0,4.055631161E-2,-2.147388458E-2,-5.709648132E-3
3.663981832E0,4.441308975E-2,-5.357742310E-3,5.379080772E-3
3.668759280E0,3.821396828E-2,1.893234253E-2,5.198895931E-3
3.673536728E0,2.253103256E-2,2.875995636E-2,-9.652018547E-3
3.678314176E0,1.826202869E-2,3.138637543E-2,-3.384584188E-2
3.683091676E0,2.243483067E-2,1.265525818E-2,-4.065114260E-2
3.687869124E0,5.190134048E-3,1.780796051E-2,-9.310376644E-2
3.692646572E0,-7.210612297E-3,3.241634369E-2,-1.334415674E-1
3.697424072E0,-3.019905090E-2,3.090763092E-2,-1.499524713E-1
3.702201519E0,-2.459287643E-2,1.399803162E-2,-1.577007771E-1
3.706978967E0,-3.096938133E-2,2.038192749E-2,-1.366580129E-1
3.711756415E0,-3.666758537E-2,3.089332581E-2,-1.195877790E-1
3.716533915E0,-1.983714104E-2,4.132938385E-2,-7.859003544E-2
3.721311363E0,-2.152669430E-2,6.012916565E-3,-3.807151318E-2
3.726088811E0,-1.785421371E-2,3.623008728E-3,-1.986330748E-2
3.730866259E0,-4.271423817E-2,-1.358318329E-2,-5.366146564E-3
3.735643759E0,-4.241418839E-2,-1.225566864E-2,1.324599981E-2
3.740421207E0,-2.330076694E-2,-9.799003601E-3,3.955888748E-2
3.745198655E0,-2.333796024E-2,-2.695178986E-2,5.807274580E-2
3.749976103E0,5.017161369E-3,-2.086162567E-2,1.045507193E-1
3.754753603E0,4.141628742E-2,-6.046295166E-4,1.335916519E-1
3.759531051E0,6.738007069E-2,1.115894318E-2,1.548061967E-1
3.764308499E0,8.785843849E-2,2.578449249E-2,1.831748486E-1
3.769085947E0,8.039093018E-2,2.545070648E-2,2.056618929E-1
3.773863447E0,8.456480503E-2,2.512645721E-2,1.875988245E-1
3.778640894E0,3.189802170E-2,4.730987549E-2,1.259146333E-1
3.783418342E0,-2.700781822E-2,7.340049744E-2,8.584451675E-2
3.788195842E0,-1.667511463E-2,1.915931702E-2,5.759668350E-2
3.792973290E0,8.513689041E-3,-3.047561646E-2,-6.392526627E-2
3.797750738E0,2.276313305E-2,-3.759288788E-2,-7.225531340E-2
3.802528186E0,4.570221901E-2,-2.539634705E-3,-7.646399736E-2
3.807305686E0,6.795537472E-2,-1.344299316E-2,-1.802293062E-1
3.812083134E0,9.428346157E-2,-5.817413330E-3,-2.116412520E-1
3.816860582E0,9.309756756E-2,-2.975463867E-3,-2.567384839E-1
3.821638030E0,4.865860939E-2,1.533317566E-2,-3.104309440E-1
3.826415530E0,-1.627123356E-2,4.501342773E-3,-3.499580324E-1
3.831192978E0,-6.590795517E-2,-9.714126587E-3,-3.689647317E-1
3.835970426E0,-1.474131346E-1,-2.082347870E-2,-3.678314686E-1
3.840747874E0,-2.021782398E-1,-3.654861450E-2,-3.334153891E-1
3.845525374E0,-2.032895088E-1,-2.427387238E-2,-2.520991564E-1
3.850302822E0,-1.778539419E-1,-1.213550568E-2,-1.607174277E-1
3.855080269E0,-1.159377098E-1,-2.266979218E-2,-7.351601124E-2
3.859857717E0,-4.451632500E-2,-1.000881195E-2,2.263629436E-2
3.864635217E0,2.699649334E-2,3.726959229E-3,9.867942333E-2
3.869412665E0,8.495545387E-2,1.913070679E-3,1.661293507E-1
3.874190113E0,1.063606739E-1,2.027702332E-2,2.131696939E-1
3.878967613E0,1.028568745E-1,-5.405426025E-3,2.186517715E-1
3.883745061E0,9.304761887E-2,-1.544094086E-2,1.875896454E-1
3.888522509E0,7.032084465E-2,-1.413631439E-2,1.742777228E-1
3.893299957E0,3.066706657E-2,-3.944396973E-3,1.316101551E-1
3.898077457E0,2.386987209E-2,1.401901245E-3,1.070473790E-1
3.902854905E0,-4.826664925E-3,-2.785682678E-3,5.713069439E-2
3.907632353E0,-1.498615742E-2,1.975727081E-2,1.218920946E-2
3.912409801E0,-2.222347260E-2,3.261756897E-2,-4.033499956E-2
3.917187301E0,-3.125047684E-2,3.172969818E-2,-8.192712069E-2
3.921964749E0,-2.777075768E-2,4.034900665E-2,-9.306615591E-2
3.926742197E0,-1.073956490E-2,3.287887573E-2,-1.161015034E-1
3.931519644E0,1.154661179E-2,3.260231018E-2,-1.223608255E-1
3.936297144E0,2.185475826E-2,3.057289124E-2,-1.209765673E-1
3.941074592E0,6.118738651E-2,4.576206207E-2,-9.754770994E-2
3.945852040E0,9.555375576E-2,5.081176758E-3,-7.075148821E-2
3.950629488E0,1.029181480E-1,-4.416465759E-3,-5.189043283E-2
3.955406988E0,9.080767632E-2,-5.501747131E-3,-5.750560760E-2
3.960184436E0,9.955871105E-2,5.435943604E-4,-4.470831156E-2
3.964961884E0,9.531188011E-2,2.400398254E-3,-4.615288973E-2
3.969739384E0,6.613254547E-2,1.271247864E-3,-3.815168142E-2
3.974516832E0,4.493474960E-2,1.676464081E-2,-4.027557373E-2
3.979294280E0,3.282201290E-2,1.967620850E-2,-5.191361904E-2
3.984071728E0,3.325557709E-2,4.866790771E-2,-5.639457703E-2
3.988849228E0,3.487884998E-2,3.352260590E-2,-5.017244816E-2
3.993626676E0,4.249382019E-2,3.216171265E-2,-5.822908878E-2
3.998404124E0,3.587460518E-2,2.371501923E-2,-6.279975176E-2
4.003181572E0,3.643476963E-2,4.025363922E-2,-6.314802170E-2
4.007959072E0,2.634012699E-2,5.192089081E-2,-5.468970537E-2
4.012736519E0,-3.859639168E-3,6.170845032E-2,-5.163949728E-2
4.017513967E0,7.100224495E-3,3.937721252E-2,-3.379869461E-2
4.022291415E0,-5.022287369E-4,2.432537079E-2,-1.776033640E-2
4.027068915E0,1.875531673E-2,1.237964630E-2,-1.010847092E-2
4.031846363E0,4.674077034E-2,2.888679504E-3,1.188844442E-2
4.036623811E0,2.238833904E-2,-1.007461548E-2,4.509574175E-2
4.041401311E0,2.438437939E-2,9.099006653E-3,7.105594873E-2
4.046178759E0,1.867687702E-2,-9.698867798E-4,9.464788437E-2
4.050956207E0,4.751682281E-3,2.667427063E-3,-1.213532686E-2
4.055733655E0,-1.139950752E-2,2.729415894E-3,-1.667808294E-1
4.060511155E0,-4.719901085E-2,-3.124237061E-3,-1.712574959E-1
4.065288603E0,-8.567881584E-2,-1.718330383E-2,-2.878393531E-1
4.070066051E0,-1.197680235E-1,-2.575683594E-2,-3.262160420E-1
4.074843499E0,-1.305971146E-1,-8.752822876E-3,-2.495285869E-1
4.079620999E0,-9.701335430E-2,-1.502227783E-2,-1.940310001E-1
4.084398447E0,-1.447701454E-2,-2.417659760E-2,-9.601068497E-2
4.089175894E0,4.266214371E-2,-3.618049622E-2,-2.672338486E-2
4.093953342E0,7.566988468E-2,-3.146934509E-2,5.219721794E-2
4.098730842E0,5.743992329E-2,-7.835388184E-3,9.817337990E-2
4.103508290E0,1.795804501E-2,4.305839539E-3,1.190298200E-1
4.108285738E0,-3.540062904E-2,2.165985107E-2,1.115829349E-1
4.113063186E0,-6.468820572E-2,2.990818024E-2,1.165561676E-1
4.117840686E0,-9.432733059E-2,4.399299622E-2,1.277166009E-1
4.122618134E0,-7.159209251E-2,2.826499939E-2,1.058009267E-1
4.127395582E0,-4.791295528E-2,2.567291260E-3,7.759934664E-2
4.132173030E0,-4.896521568E-3,-1.047134399E-2,5.504542589E-2
4.136950530E0,1.932573318E-2,-1.450729370E-2,3.380686045E-2
4.141727978E0,5.169487000E-2,2.848625183E-3,3.595328331E-2
4.146505426E0,6.726968288E-2,-5.425453186E-3,8.924365044E-3
4.151282926E0,6.316709518E-2,1.225471497E-3,-3.066062927E-4
4.156060374E0,4.960083961E-2,1.850128174E-2,-6.030201912E-4
4.160837822E0,3.314840794E-2,2.377414703E-2,-9.976029396E-4
4.165615269E0,8.633136749E-4,2.367210388E-2,-6.149530411E-3
4.170392769E0,-1.928746700E-2,2.119827271E-2,-5.860924721E-4
4.175170217E0,-1.732134819E-2,2.468490601E-2,1.233816147E-4
4.179947665E0,-1.125025749E-2,4.400253296E-3,2.225726843E-2
4.184725113E0,-1.057231426E-2,-2.877426147E-2,3.480345011E-2
4.189502613E0,-2.176523209E-2,-3.557586670E-2,3.247499466E-2
4.194280061E0,-1.553201675E-2,-2.511024475E-2,3.153592348E-2
4.199057509E0,-2.358198166E-3,-1.476001740E-2,4.191058874E-2
4.203835009E0,2.427458763E-3,-5.692481995E-3,2.152138948E-2
4.208612457E0,-2.888202667E-3,7.438659668E-3,2.403455973E-2
4.213389905E0,-1.646959782E-2,9.787559509E-3,5.713582039E-3
4.218167353E0,-2.612113953E-3,2.027511597E-3,-1.589804888E-2
4.222944853E0,1.352882385E-2,2.651214600E-4,-1.296937466E-2
4.227722301E0,8.211612701E-3,-5.629539490E-3,-1.421415806E-2
4.232499749E0,1.364612579E-2,-3.044128418E-2,-2.268636227E-2
4.237277197E0,6.103873253E-3,-1.230907440E-2,-5.014061928E-3
4.242054697E0,1.931989193E-2,-2.639770508E-3,2.353310585E-3
4.246832144E0,2.124166489E-2,-7.860183716E-3,1.909911633E-2
4.251609592E0,3.501343727E-2,3.567695618E-3,4.527533054E-2
4.256387040E0,2.733981609E-2,2.914237976E-2,6.767004728E-2
4.261164540E0,1.023352146E-2,2.897834778E-2,6.808930635E-2
4.265941988E0,-2.005815506E-3,2.821254730E-2,5.730789900E-2
4.270719436E0,-1.001238823E-2,2.921676636E-2,7.462501526E-2
4.275496936E0,2.249240875E-3,1.715278625E-2,7.889908552E-2
4.280274384E0,4.941105843E-3,4.000663757E-3,5.355912447E-2
4.285051832E0,-6.822347641E-4,-1.795482635E-2,4.165601730E-2
4.289829280E0,-6.247043610E-3,-1.184082031E-2,3.752595186E-2
4.294606780E0,-2.363872528E-2,-1.230430603E-2,1.682317257E-2
4.299384228E0,-5.046999454E-2,1.331996918E-2,6.389677525E-3
4.304161676E0,-5.572140217E-2,1.869201660E-4,-1.185923815E-2
4.308939124E0,-5.150151253E-2,-1.343441010E-2,4.397451878E-3
4.313716624E0,-4.440057278E-2,-2.101135254E-2,7.368266582E-3
4.318494072E0,-2.375340462E-2,-2.081012726E-2,1.614189148E-2
4.323271519E0,-1.986992359E-2,-6.962776184E-3,3.610295057E-2
4.328048967E0,-1.740455627E-3,-3.899574280E-3,6.359583139E-2
4.332826467E0,2.228116989E-2,-1.212692261E-2,7.143718004E-2
4.337603915E0,3.068375587E-2,-4.046344757E-2,7.517957687E-2
4.342381363E0,2.951514721E-2,-3.655719757E-2,8.448410034E-2
4.347158863E0,1.236581802E-2,-2.439117432E-2,7.612496614E-2
4.351936311E0,4.818081856E-3,2.485275269E-3,4.183882475E-2
4.356713759E0,3.292560577E-4,1.193332672E-2,2.064108849E-4
4.361491207E0,-1.187205315E-2,2.722454071E-2,-3.689318895E-2
4.366268707E0,-1.623070240E-2,1.630020142E-2,-7.139563560E-2
4.371046155E0,-3.485894203E-2,1.732826233E-2,-1.081001759E-1
4.375823603E0,-4.867410660E-2,3.082370758E-2,-1.282429099E-1
4.380601051E0,-4.045176506E-2,2.346897125E-2,-1.265954971E-1
4.385378551E0,-2.339410782E-2,2.153015137E-2,-1.114637852E-1
4.390155999E0,-2.785134315E-2,1.310062408E-2,-7.355499268E-2
4.394933447E0,-1.331627369E-2,2.907180786E-2,-4.977834225E-2
4.399710947E0,7.039070129E-3,1.881122589E-2,-6.618499756E-3
4.404488394E0,2.313709259E-2,3.433227539E-4,3.972047567E-2
4.409265842E0,3.911840916E-2,-4.337310791E-3,7.811945677E-2
4.414043290E0,4.499685764E-2,1.712322235E-2,1.016119123E-1
4.418820790E0,3.836417198E-2,2.197265625E-3,1.518200636E-1
4.423598238E0,4.059612751E-2,-1.026344299E-2,1.881228089E-1
4.428375686E0,2.974641323E-2,1.082420349E-3,1.988493800E-1
4.433153134E0,5.521523952E-2,9.946823120E-3,2.411748171E-1
4.437930634E0,6.734728813E-2,1.990222931E-2,2.725687027E-1
4.442708082E0,8.180928230E-2,1.552104950E-2,3.081279397E-1
4.447485530E0,1.069241762E-1,-7.811546326E-3,3.044849634E-1
4.452263030E0,1.118381023E-1,-3.216838837E-2,2.564848065E-1
4.457040478E0,8.767139912E-2,-1.127338409E-2,2.200020552E-1
4.461817926E0,8.039164543E-2,-1.193332672E-2,1.931383610E-1
4.466595374E0,7.571113110E-2,-3.691101074E-2,9.329044819E-2
4.471372874E0,7.189381123E-2,-7.056999207E-2,-4.450595379E-2
4.476150322E0,2.244091034E-2,-6.182289124E-2,-7.262152433E-2
4.480927769E0,-2.190268040E-2,-3.903388977E-3,-1.006767750E-1
4.485705217E0,-3.288912773E-2,1.495552063E-2,-1.839352846E-1
4.490482717E0,-8.779883385E-3,4.026412964E-3,-2.341655493E-1
4.495260165E0,1.028621197E-2,-6.189346313E-3,-2.702422738E-1
4.500037613E0,1.247882843E-3,1.551628113E-3,-2.796824574E-1
4.504815061E0,-2.199208736E-2,6.937026978E-3,-2.977325320E-1
4.509592561E0,-7.288980484E-2,-3.656387329E-3,-2.963459492E-1
4.514370009E0,-1.176705360E-1,-1.829814911E-2,-2.529141903E-1
4.519147457E0,-1.591870785E-1,-4.765319824E-2,-2.129228711E-1
4.523924957E0,-1.821069717E-1,-4.298210144E-2,-1.506410241E-1
4.528702405E0,-1.520795822E-1,-2.294635773E-2,-8.401077986E-2
4.533479853E0,-9.512150288E-2,4.005432129E-3,-1.002591848E-2
4.538257301E0,-1.809716225E-3,3.191280365E-2,5.993515253E-2
4.543034801E0,7.073795795E-2,1.629638672E-2,1.158931255E-1
4.547812249E0,1.268084049E-1,-1.045894623E-2,1.645480990E-1
4.552589697E0,1.434491873E-1,-1.955032349E-4,2.005701661E-1
4.557367144E0,1.179776192E-1,6.434440613E-3,2.026450038E-1
4.562144644E0,6.724298000E-2,1.358890533E-2,1.924609542E-1
4.566922092E0,4.776489735E-2,-1.271247864E-3,1.539212465E-1
4.571699540E0,1.175510883E-2,-8.903503418E-3,1.061939001E-1
4.576476988E0,-3.231930733E-2,1.082038879E-2,7.058805227E-2
4.581254488E0,-4.950499535E-2,1.316642761E-2,1.126945019E-2
4.586031936E0,-4.591989517E-2,-1.707077026E-3,-5.615133047E-2
4.590809384E0,-3.240203857E-2,-2.238178253E-2,-8.539873362E-2
4.595586884E0,-2.612996101E-2,-1.734828949E-2,-1.034599543E-1
4.600364332E0,-2.944016457E-2,7.162094116E-4,-9.143191576E-2
4.605141780E0,-7.773756981E-3,-2.703666687E-3,-5.180126429E-2
4.609919228E0,1.332759857E-4,-1.735687256E-2,-1.127880812E-2
4.614696728E0,2.102458477E-2,1.923561096E-3,3.901678324E-2
4.619474176E0,3.227603436E-2,3.836631775E-3,7.949358225E-2
4.624251624E0,3.928613663E-2,2.161979675E-3,1.168066263E-1
4.629029072E0,4.514706135E-2,-4.240989685E-3,1.391480565E-1
4.633806572E0,5.041706562E-2,-1.356315613E-2,1.466559768E-1
4.638584019E0,5.744457245E-2,-2.045631409E-3,1.357687116E-1
4.643361467E0,2.888786793E-2,-2.498626709E-3,1.240164042E-1
4.648138915E0,2.615833282E-2,1.663303375E-2,1.166412234E-1
4.652916415E0,1.280605793E-2,1.187992096E-2,1.051989794E-1
4.657693863E0,-9.374737740E-3,-7.080078125E-3,7.548880577E-2
4.662471311E0,-1.420402527E-2,2.578735352E-3,6.566572189E-2
4.667248759E0,-2.152359486E-2,2.399063110E-2,6.779485941E-2
4.672026259E0,-2.698063850E-3,1.853466034E-2,5.263346434E-2
4.676803707E0,1.008367538E-2,6.637573242E-4,5.016702414E-2
4.681581155E0,6.753563881E-3,-1.041412354E-3,7.088023424E-2
4.686358655E0,2.724528313E-2,-1.577377319E-2,7.602488995E-2
4.691136103E0,1.378381252E-2,-4.881858826E-3,8.365017176E-2
4.695913551E0,2.004897594E-2,2.845954895E-2,8.951562643E-2
4.700690999E0,1.316571236E-2,1.641845703E-2,8.655446768E-2
4.705468499E0,8.100748062E-3,-6.211280823E-3,8.015149832E-2
4.710245947E0,2.690207958E-2,-4.924774170E-3,1.007072926E-1
4.715023394E0,4.083979130E-2,-5.437850952E-3,1.342958808E-1
4.719800894E0,3.565692902E-2,-1.900482178E-2,1.474744678E-1
4.724578342E0,2.286756039E-2,-2.535724640E-2,1.276243329E-1
4.729355790E0,1.023006439E-2,-1.683712006E-2,-4.251706600E-2
4.734133238E0,-4.686319828E-2,1.002502441E-2,-9.119540453E-2
4.738910738E0,-8.586156368E-2,3.480911255E-3,-1.022937298E-1
4.743688186E0,-8.840739727E-2,-4.272365570E-2,-2.288154960E-1
4.748465634E0,-9.575939178E-2,-5.413913727E-2,-2.375470996E-1
4.753243134E0,-7.169675827E-2,-2.926540375E-2,-1.640115976E-1
4.758020582E0,9.977817535E-5,-3.485584259E-2,-8.714216948E-2
4.762798030E0,6.072127819E-2,-3.384494781E-2,-2.585005760E-2
4.767575478E0,1.007157564E-1,-1.206970215E-2,5.509364605E-2
4.772352926E0,1.196968555E-1,1.604461670E-2,1.071007252E-1
4.777130426E0,1.066175699E-1,1.544952393E-2,1.518394947E-1
4.781907874E0,6.932497025E-2,2.949714661E-3,1.640496254E-1
4.786685322E0,2.531266212E-2,7.731437683E-3,1.481401920E-1
4.791462822E0,-8.260965347E-3,7.699966431E-3,1.557670832E-1
4.796240269E0,-5.834102631E-4,5.245208740E-4,1.357940435E-1
4.801017717E0,-7.965445518E-3,-9.013175964E-3,1.138027906E-1
4.805795217E0,-4.572629929E-3,8.228302002E-3,7.837396860E-2
4.810572665E0,1.052570343E-2,1.641559601E-2,5.439376831E-2
4.815350113E0,1.421415806E-2,9.703636169E-3,4.421746731E-2
4.820127561E0,1.069366932E-2,1.966667175E-2,2.917945385E-2
4.824905061E0,3.515136242E-2,1.711368561E-2,1.709324121E-2
4.829682509E0,3.632664680E-2,-2.012252808E-3,-8.600354195E-4
4.834459957E0,1.796400547E-2,7.508277893E-3,-1.455843449E-2
4.839237405E0,3.772795200E-2,1.458644867E-2,-2.347755432E-2
4.844014905E0,1.105499268E-2,5.002021790E-3,-2.646732330E-2
4.848792353E0,-1.015710831E-2,-1.757431030E-2,-2.228862047E-2
4.853569801E0,-1.215863228E-2,-1.800251007E-2,-1.757305861E-2
4.858347249E0,-2.008867264E-2,-1.249885559E-2,-1.464664936E-2
4.863124749E0,-2.026879787E-2,-1.712703705E-2,-2.426570654E-2
4.867902197E0,-1.503121853E-2,-1.518535614E-2,-2.420556545E-2
4.872679644E0,5.547165871E-3,-1.860523224E-2,-1.703727245E-2
4.877457144E0,1.286137104E-2,-2.023410797E-2,9.728968143E-3
4.882234592E0,3.146123886E-2,-2.776718140E-2,1.256376505E-2
4.887012040E0,2.972662449E-2,-3.287601471E-2,1.666486263E-2
4.891789488E0,2.512550354E-2,-3.852653503E-2,2.495211363E-2
4.896566988E0,2.766644955E-2,-3.168582916E-2,1.429474354E-2
4.901344436E0,1.776647568E-2,-1.066207886E-2,-6.889522076E-3
4.906121884E0,-5.153298378E-3,-5.253791809E-3,1.250970364E-2
4.910899384E0,-1.539099216E-2,4.261970520E-3,2.140223980E-3
4.915676832E0,-4.236578941E-3,-7.663726807E-3,8.458495140E-3
4.920454280E0,3.923416138E-3,5.430221558E-3,1.148223877E-3
4.925231728E0,3.666520119E-3,1.365756989E-2,2.182960510E-2
4.930009228E0,5.809545517E-3,1.232624054E-2,1.624614000E-2
4.934786676E0,-1.816236973E-2,9.819984436E-3,2.556270361E-2
4.939564124E0,-2.125322819E-2,1.502704620E-2,2.835190296E-2
4.944341572E0,-1.727831364E-2,2.491664886E-2,6.809294224E-3
4.949119072E0,-1.092064381E-2,2.168369293E-2,2.340894938E-2
4.953896519E0,6.691932678E-3,8.487701416E-5,4.411667585E-2
4.958673967E0,-4.877090454E-3,6.560325623E-3,5.272287130E-2
4.963451415E0,-6.305456161E-3,-1.254272461E-2,4.949671030E-2
4.968228915E0,3.049731255E-3,-2.139663696E-2,6.186765432E-2
4.973006363E0,1.535320282E-2,-2.898216248E-2,5.514913797E-2
4.977783811E0,9.764909744E-3,-2.346038818E-2,7.055938244E-2
4.982561311E0,8.368611336E-3,-2.570438385E-2,5.268841982E-2
4.987338759E0,1.532828808E-2,-3.980064392E-2,5.646747351E-2
4.992116207E0,3.807663918E-3,-2.887535095E-2,4.783505201E-2
4.996893655E0,-6.979584694E-3,-2.752876282E-2,1.143926382E-2
5.001671155E0,-6.474733353E-3,-2.501773834E-2,-2.349531651E-2
5.006448603E0,-1.903808117E-2,3.575325012E-3,-4.512089491E-2
5.011226051E0,-2.679252625E-2,4.882812500E-4,-7.908594608E-2
5.016003551E0,-5.640041828E-2,-1.957893372E-3,-1.248157024E-1
5.020780999E0,-7.337021828E-2,-1.089954376E-2,-1.211533546E-1
5.025558447E0,-6.233561039E-2,-1.947402954E-3,-1.154595017E-1
5.030335894E0,-4.431974888E-2,2.192497253E-3,-9.336161613E-2
5.035113394E0,-4.304730892E-2,-1.681709290E-2,-8.353173733E-2
5.039890842E0,-3.001558781E-2,-2.380275726E-2,-7.219964266E-2
5.044668290E0,-2.123975754E-2,-6.389617920E-3,-5.166631937E-2
5.049445738E0,-2.917778492E-2,9.688377380E-3,-3.609055281E-2
5.054223238E0,-2.520585060E-2,-3.430366516E-3,-1.718360186E-2
5.059000686E0,-3.381073475E-2,2.540588379E-3,-6.878912449E-3
5.063778134E0,-8.609771729E-3,4.296302795E-3,2.585595846E-2
5.068555634E0,2.467906475E-2,-2.858161926E-3,5.885726213E-2
5.073333082E0,2.506303787E-2,-2.122497559E-2,9.219163656E-2
5.078110530E0,3.722405434E-2,-1.750373840E-2,1.590244174E-1
5.082888030E0,4.749333858E-2,-2.552032471E-3,2.081798315E-1
5.087665478E0,5.889153481E-2,-6.723403931E-3,2.435203195E-1
5.092442926E0,7.870149612E-2,-3.399276733E-2,2.653231025E-1
5.097220374E0,5.047476292E-2,-6.497383118E-3,2.112427354E-1
5.101997874E0,2.540075779E-2,7.672309875E-3,1.669146419E-1
5.106775322E0,3.324496746E-2,1.516532898E-2,1.377517581E-1
5.111552769E0,3.163468838E-2,-3.317546844E-2,1.304721832E-2
5.116330217E0,3.130722046E-2,-3.840065002E-2,-6.001633406E-2
5.121107717E0,1.966309547E-2,-1.094341278E-2,-1.042190194E-1
5.125885165E0,3.714513779E-2,-1.750373840E-2,-1.608526707E-1
5.130662613E0,1.235258579E-2,-1.687335968E-2,-1.614663601E-1
5.135440113E0,1.628923416E-2,-1.384925842E-2,-1.836242080E-1
5.140217561E0,7.108569145E-3,-1.377010345E-2,-2.720596194E-1
5.144995009E0,-1.992106438E-2,9.494781494E-3,-3.018911481E-1
5.149772457E0,-6.104373932E-2,7.695198059E-3,-2.769950628E-1
5.154549957E0,-9.186899662E-2,-1.174926758E-3,-2.779040337E-1
5.159327405E0,-1.011406183E-1,-8.762359619E-3,-2.720653415E-1
5.164104853E0,-1.002690792E-1,-7.377624512E-3,-2.231497765E-1
5.168882301E0,-8.291006088E-2,-5.430221558E-3,-1.770446897E-1
5.173659801E0,-5.082213879E-2,1.132774353E-2,-1.127912998E-1
5.178437249E0,-3.023946285E-2,2.438163757E-2,-4.834598303E-2
5.183214697E0,8.040666580E-3,4.148006439E-2,7.987499237E-3
5.187992197E0,4.253363609E-2,3.056049347E-2,4.680639505E-2
5.192769644E0,5.782878399E-2,1.558589935E-2,9.961861372E-2
5.197547092E0,5.716729164E-2,2.388954163E-2,1.083127260E-1
5.202324540E0,3.574180603E-2,1.966285706E-2,9.263682365E-2
5.207102040E0,-1.001954079E-3,2.614212036E-2,7.345205545E-2
5.211879488E0,-3.275203705E-2,7.651329041E-3,3.769022226E-2
5.216656936E0,-4.592239857E-2,2.961158752E-3,-6.277382374E-3
5.221434436E0,-5.668795109E-2,9.597778320E-3,-6.625324488E-2
5.226211884E0,-6.626868248E-2,7.895469666E-3,-1.000590920E-1
5.230989332E0,-7.879328728E-2,3.850936890E-3,-1.356991529E-1
5.235766780E0,-6.580352783E-2,7.567405701E-3,-1.512343884E-1
5.240544280E0,-4.585611820E-2,1.482963562E-2,-1.236460209E-1
5.245321728E0,-2.852344513E-2,1.254558563E-2,-1.149244308E-1
5.250099176E0,-2.966439724E-2,5.552291870E-3,-7.369667292E-2
5.254876676E0,-1.156210899E-3,-3.166198730E-3,-4.585993290E-2
5.259654124E0,1.645326614E-2,1.251316071E-2,-1.111620665E-2
5.264431572E0,1.611125469E-2,-1.346874237E-2,4.177236557E-2
5.269209019E0,3.297865391E-2,-3.807449341E-2,6.428658962E-2
5.273986519E0,6.048595905E-2,-3.637313843E-2,9.217762947E-2
5.278763967E0,5.640184879E-2,-1.393032074E-2,9.992522001E-2
5.283541415E0,3.754293919E-2,9.507179260E-3,1.071117520E-1
5.288318915E0,4.148471355E-2,9.016990662E-3,1.168604493E-1
5.293096363E0,2.641630173E-2,1.088523865E-2,1.119330525E-1
5.297873811E0,-4.596948624E-3,3.703784943E-2,1.000603437E-1
5.302651259E0,-3.474915028E-2,5.525207520E-2,9.314525127E-2
5.307428759E0,-4.333400726E-2,4.778671265E-2,4.964715242E-2
5.312206207E0,-3.881335258E-2,4.216003418E-2,3.261429071E-2
5.316983655E0,-4.739117622E-2,6.916046143E-3,1.157784462E-2
5.321761155E0,-1.906633377E-2,1.231861115E-2,6.107449532E-3
5.326538603E0,-2.253770828E-3,1.668930054E-3,-9.515881538E-3
5.331316051E0,1.410484314E-3,4.171371460E-3,-1.082998514E-2
5.336093499E0,-1.341581345E-2,-2.846717834E-3,-5.059480667E-3
5.340870999E0,8.655905724E-3,-2.048778534E-2,1.553767920E-2
5.345648447E0,1.102566719E-2,-1.483345032E-2,3.059035540E-2
5.350425894E0,-5.014419556E-3,-1.812744141E-2,5.209845304E-2
5.355203342E0,-1.740014553E-2,1.131057739E-3,9.724885225E-2
5.359980842E0,-1.543295383E-2,8.950233459E-3,1.083320975E-1
5.364758290E0,-2.116394043E-2,2.734756470E-2,3.906250000E-2
5.369535738E0,-1.801347733E-2,2.422809601E-2,-8.721983433E-2
5.374313238E0,-2.976107597E-2,2.890682220E-2,-6.137192249E-3
5.379090686E0,-2.188181877E-2,-4.961967468E-3,-3.612321615E-2
5.383868134E0,-1.879251003E-2,-3.020381927E-2,-7.868927717E-2
5.388645634E0,-1.743173599E-2,-2.615547180E-2,-1.160998940E-1
5.393423082E0,-3.934729099E-2,-3.107833862E-2,-1.583929658E-1
5.398200530E0,-4.517853260E-2,-3.005886078E-2,-1.124402881E-1
5.402977978E0,3.611493111E-2,-1.364421844E-2,-2.656918764E-2
5.407755478E0,1.180526018E-1,-3.156661987E-4,1.002800465E-2
5.412532926E0,1.597310305E-1,1.767349243E-2,5.945712328E-2
5.417310374E0,1.597599983E-1,2.129745483E-2,8.318066597E-2
5.422087874E0,1.011693478E-1,-4.773139954E-3,9.333634377E-2
5.426865322E0,3.550171852E-2,5.554199219E-3,9.129726887E-2
5.431642769E0,-4.213714600E-2,2.051067352E-2,9.362727404E-2
5.436420217E0,-8.001458645E-2,1.751518250E-2,7.127374411E-2
5.441197717E0,-8.808267117E-2,-1.217746735E-2,7.751870155E-2
5.445975165E0,-7.897257805E-2,-1.020240784E-2,6.536257267E-2
5.450752613E0,-4.636585712E-2,-2.931594849E-3,6.809860468E-2
5.455530113E0,-5.756616592E-3,6.068229675E-3,7.184845209E-2
5.460307561E0,1.321029663E-2,1.322269440E-2,8.683341742E-2
5.465085009E0,4.568231106E-2,2.626323700E-2,8.915203810E-2
5.469862509E0,2.988302708E-2,1.368618011E-2,7.493549585E-2
5.474639957E0,3.671586514E-2,-1.767158508E-3,6.507056952E-2
5.479417405E0,2.937829494E-2,1.436233521E-2,5.419856310E-2
5.484194853E0,2.806103230E-2,7.217407227E-3,4.115241766E-2
5.488972353E0,1.314079762E-2,8.434295654E-3,3.422778845E-2
5.493749801E0,4.371523857E-3,7.467269897E-4,4.056006670E-2
5.498527249E0,-1.673364639E-2,4.405021667E-3,4.090815783E-2
5.503304697E0,-3.412175179E-2,-9.772300720E-3,3.477454185E-2
5.508082197E0,-3.126609325E-2,-9.022712708E-3,1.749116182E-2
5.512859644E0,-3.133499622E-2,-1.657867432E-2,-7.290840149E-3
5.517637092E0,-2.192747593E-2,-9.250640869E-3,-2.050405741E-2
5.522414592E0,-1.324307919E-2,-1.860523224E-2,-2.887582779E-2
5.527192040E0,7.827043533E-3,-2.255058289E-2,-3.411591053E-2
5.531969488E0,-6.892085075E-3,-3.923416138E-3,-3.338688612E-2
5.536746936E0,-3.032624722E-2,-1.510906219E-2,-3.081113100E-2
5.541524436E0,-2.337467670E-2,1.663208008E-3,-4.600381851E-2
5.546301884E0,-2.480065823E-2,8.215904236E-3,-4.512345791E-2
5.551079332E0,-1.130855083E-2,-1.288414001E-3,-4.663568735E-2
5.555856832E0,5.046248436E-3,-2.288818359E-5,-4.884004593E-2
5.560634280E0,-9.626865387E-3,1.308727264E-2,-2.373081446E-2
5.565411728E0,9.103536606E-3,1.483535767E-2,-8.384227753E-3
5.570189176E0,1.167190075E-2,5.297660828E-3,2.097666264E-3
5.574966676E0,1.003789902E-2,-8.914947510E-3,2.678227425E-2
5.579744124E0,-9.965658188E-3,-4.787445068E-4,4.308509827E-2
5.584521572E0,-1.672065258E-2,-5.173683167E-3,4.517310858E-2
5.589299072E0,-2.043080330E-2,-1.577186584E-2,4.739761353E-2
5.594076519E0,-1.050007343E-2,-3.282833099E-2,2.957803011E-2
5.598853967E0,-2.488529682E-2,-3.194713593E-2,1.210415363E-2
5.603631467E0,-2.612638474E-2,-1.387405396E-2,2.975028753E-2
5.608408915E0,-2.379095554E-2,-4.858970642E-3,2.481609583E-2
5.613186363E0,-2.504837513E-2,-1.312446594E-2,1.814883947E-2
5.617963811E0,-1.738703251E-2,-1.301765442E-2,1.868921518E-2
5.622741311E0,-1.043486595E-2,1.909255981E-3,9.125113487E-3
5.627518759E0,-6.466269493E-3,-3.458023071E-3,6.846666336E-3
5.632296207E0,-7.327437401E-3,-1.412677765E-2,-7.855892181E-4
5.637073707E0,-5.115032196E-3,8.532524109E-3,-1.664978266E-2
5.641851155E0,-2.014541626E-2,1.319694519E-2,-4.833871126E-2
5.646628603E0,-1.609826088E-2,5.374908447E-3,-7.160836458E-2
5.651406103E0,-1.625263691E-2,5.316734314E-3,-1.040841341E-1
5.656183551E0,-3.717672825E-2,7.048606873E-3,-1.162383556E-1
5.660960999E0,-1.882624626E-2,-1.201629639E-4,-1.154752374E-1
5.665738447E0,-2.553582191E-2,-1.313686371E-2,-1.291579008E-1
5.670515947E0,-4.767012596E-2,-7.061004639E-3,-1.191663146E-1
5.675293394E0,-3.877913952E-2,3.742218018E-3,-9.594148397E-2
5.680070842E0,-6.280541420E-3,-9.698867798E-4,-7.772284746E-2
5.684848290E0,-7.196068764E-3,-1.214694977E-2,-4.253053665E-2
5.689625790E0,6.124019623E-3,9.388923645E-3,-2.655798197E-2
5.694403238E0,1.106214523E-2,3.253459930E-2,-7.462501526E-5
5.699180686E0,-4.145026207E-3,3.472900391E-2,-2.176403999E-3
5.703958186E0,-1.585125923E-3,3.686428070E-2,2.193760872E-2
5.708735634E0,2.726435661E-3,3.067302704E-2,4.111963511E-2
5.713513082E0,1.826751232E-2,2.689933777E-2,5.665230751E-2
5.718290582E0,5.610954762E-2,3.025054932E-2,9.226006269E-2
5.723068030E0,6.273055077E-2,1.339149475E-2,1.257981658E-1
5.727845478E0,8.710896969E-2,-1.579189301E-2,1.692492366E-1
5.732622926E0,1.245282888E-1,-2.692604065E-2,2.197424173E-1
5.737400426E0,1.412023306E-1,-1.007843018E-2,2.253201008E-1
5.742177874E0,1.098996401E-1,3.023147583E-3,1.765715480E-1
5.746955322E0,5.270278454E-2,1.358604431E-2,1.678754687E-1
5.751732822E0,3.521311283E-2,6.236076355E-3,1.466436982E-1
5.756510269E0,1.915597916E-2,-9.967803955E-3,5.655878782E-2
5.761287717E0,-1.278316975E-2,-6.473541260E-3,1.896601915E-2
5.766065217E0,-8.369565010E-3,-1.430416107E-2,-2.356666327E-2
5.770842665E0,-1.176631451E-2,-1.555252075E-2,-9.780758619E-2
5.775620113E0,4.418253899E-3,1.613616943E-3,-1.638882160E-1
5.780397613E0,-1.939535141E-4,-8.602142334E-3,-2.492918372E-1
5.785175061E0,-1.254272461E-2,-1.154899597E-2,-3.247169852E-1
5.789952509E0,-5.519843102E-2,-5.489349365E-3,-3.520560265E-1
5.794729957E0,-1.082736254E-1,-1.781082153E-2,-3.859427869E-1
5.799507457E0,-1.491794586E-1,-4.244804382E-2,-3.911750317E-1
5.804284905E0,-1.773887873E-1,-4.252243042E-2,-3.352519870E-1
5.809062353E0,-2.055662870E-1,-3.787708282E-2,-2.574113607E-1
5.813839853E0,-1.826459169E-1,-1.609516144E-2,-1.849831939E-1
5.818617301E0,-1.392916441E-1,7.209777832E-4,-8.812141418E-2
5.823394749E0,-6.139624119E-2,-1.170253754E-2,2.720475197E-3
5.828172197E0,2.347111702E-3,2.105236053E-2,7.838773727E-2
5.832949697E0,6.203424931E-2,1.732730865E-2,1.252315044E-1
5.837727144E0,9.174096584E-2,2.076625824E-2,1.654002666E-1
5.842504592E0,1.018024683E-1,1.291179657E-2,1.788300872E-1
5.847282092E0,6.745433807E-2,1.463222504E-2,1.685792804E-1
5.852059540E0,3.869044781E-2,1.750373840E-2,1.502517462E-1
5.856836988E0,-2.875804901E-3,2.330398560E-2,1.144266725E-1
5.861614436E0,-2.286410332E-2,2.133083344E-2,6.811553240E-2
5.866391936E0,-4.867601395E-2,3.302383423E-2,3.090870380E-2
5.871169384E0,-7.679235935E-2,3.690528870E-2,-2.644473314E-2
5.875946832E0,-8.044135571E-2,5.737113953E-2,-6.280601025E-2
5.880724332E0,-9.017169476E-2,5.689144135E-2,-1.109715104E-1
5.885501780E0,-8.025634289E-2,2.973365784E-2,-1.304141283E-1
5.890279228E0,-5.921506882E-2,1.883125305E-2,-1.291929483E-1
5.895056728E0,-1.640713215E-2,-5.020141602E-3,-1.067824364E-1
5.899834176E0,9.496569633E-3,-4.926681519E-3,-8.636993170E-2
5.904611624E0,4.882454872E-3,-1.136875153E-2,-3.647321463E-2
5.909389072E0,2.818846703E-2,-1.243019104E-2,1.018518209E-2
5.914166572E0,2.465820312E-2,-1.169872284E-2,2.863764763E-2
5.918944019E0,1.646685600E-2,-1.809024811E-2,5.414372683E-2
5.923721467E0,4.776000977E-3,-2.562522888E-2,6.586551666E-2
5.928498967E0,1.333999634E-2,-2.302169800E-2,6.514394283E-2
5.933276415E0,3.475189209E-3,-1.986503601E-2,3.203696012E-2
5.938053863E0,-9.276747704E-3,-1.674079895E-2,1.647835970E-2
5.942831363E0,-1.127243042E-3,-1.365661621E-2,6.517171860E-4
5.947608811E0,-3.170573711E-2,7.771492004E-3,-1.324599981E-2
5.952386259E0,-3.236734867E-2,1.062965393E-2,-3.175091743E-2
5.957163759E0,-1.992726326E-2,4.571914673E-3,-3.584861755E-2
5.961941207E0,-6.464242935E-3,5.086898804E-3,-3.346461058E-2
5.966718655E0,-3.718972206E-3,5.616188049E-3,-4.418426752E-2
5.971496103E0,1.084399223E-2,3.172874451E-3,-1.867568493E-2
5.976273603E0,1.466524601E-2,1.737880707E-2,-1.183897257E-2
5.981051051E0,2.318549156E-2,2.671337128E-2,8.043467999E-3
5.985828499E0,2.988946438E-2,5.140018463E-2,2.240121365E-2
5.990605999E0,2.884078026E-2,6.222820282E-2,3.499901295E-2
5.995383447E0,2.484214306E-2,4.626846313E-2,4.100775719E-2
6.000160894E0,4.582679272E-2,2.569103241E-2,7.617199421E-2
6.004938394E0,5.895447731E-2,2.313613892E-3,1.004728079E-1
6.009715842E0,7.921135426E-2,3.456115723E-3,9.868860245E-2
6.014493290E0,8.572721481E-2,-5.514144897E-3,-2.851355076E-2
6.019270790E0,6.014347076E-2,-3.717422485E-3,-1.222082973E-1
6.024048238E0,-2.131104469E-3,1.057720184E-2,-9.907394648E-2
6.028825686E0,-5.373167992E-2,-6.616592407E-3,-2.037104964E-1
6.033603134E0,-8.476245403E-2,-2.282142639E-3,-2.722204328E-1
6.038380634E0,-1.298890114E-1,1.862621307E-2,-2.170169950E-1
6.043158082E0,-1.191588640E-1,6.118774414E-3,-1.519492269E-1
6.047935530E0,-1.364743710E-2,-3.296470642E-2,-9.181588888E-2
6.052713030E0,6.564295292E-2,-4.974079132E-2,-2.267962694E-2
6.057490478E0,1.076259613E-1,-4.619789124E-2,6.323343515E-2
6.062267926E0,1.084110737E-1,-5.810451508E-2,1.112049222E-1
6.067045426E0,9.029138088E-2,-4.383373260E-2,1.413883567E-1
6.071822874E0,3.683519363E-2,-7.744789124E-3,1.396343112E-1
6.076600322E0,-2.619838715E-2,2.149486542E-2,1.436092257E-1
6.081377822E0,-5.564510822E-2,3.619194031E-2,1.342300177E-1
6.086155269E0,-6.652355194E-2,1.632785797E-2,1.191837788E-1
6.090932717E0,-6.913232803E-2,1.319885254E-2,1.014673114E-1
6.095710165E0,-3.907990456E-2,-7.104873657E-3,9.219372272E-2
6.100487665E0,-1.052415371E-2,-3.495407104E-2,6.926095486E-2
6.105265113E0,7.818818092E-3,-9.744644165E-3,5.296528339E-2
6.110042561E0,2.540481091E-2,1.289939880E-2,4.847127199E-2
6.114820061E0,6.107926369E-3,2.528190613E-2,5.702251196E-2
6.119597509E0,1.799106598E-3,2.509880066E-2,5.012708902E-2
6.124374957E0,9.991884232E-3,1.839923859E-2,3.789889812E-2
6.129152457E0,1.394009590E-2,1.471519470E-2,4.119628668E-2
6.133929905E0,1.257896423E-3,-1.919651031E-2,4.335343838E-2
6.138707353E0,1.182734966E-2,-2.316474915E-2,3.661453724E-2
6.143484801E0,-2.702474594E-4,-1.524639130E-2,4.539859295E-2
6.148262301E0,1.022911072E-2,-2.343177795E-2,5.778050423E-2
6.153039749E0,6.506204605E-3,-8.992195129E-3,6.892877817E-2
6.157817197E0,2.948403358E-3,-1.898574829E-2,5.404770374E-2
6.162594697E0,2.021348476E-2,-2.770805359E-2,5.121624470E-2
6.167372144E0,-1.310193539E-2,-2.212810516E-2,5.913537741E-2
6.172149592E0,-2.301192284E-2,-1.838588715E-2,3.209561110E-2
6.176927092E0,-3.229725361E-2,-1.528263092E-2,3.261643648E-2
6.181704540E0,-3.615415096E-2,4.397392273E-3,4.231929779E-6
6.186481988E0,-3.173124790E-2,3.736495972E-3,1.152914762E-2
6.191259488E0,-1.842224598E-2,1.732540131E-2,1.575946808E-3
6.196036936E0,-5.280256271E-3,1.062488556E-2,5.885779858E-3
6.200814384E0,-2.925038338E-3,1.288986206E-2,-1.205325127E-3
6.205591884E0,2.730989456E-2,1.277256012E-2,5.950927734E-4
6.210369332E0,4.188764095E-2,-2.762794495E-3,2.075302601E-2
6.215146780E0,4.746985435E-2,-4.520416260E-3,2.058100700E-2
6.219924228E0,3.462302685E-2,5.018234253E-3,1.441198587E-2
6.224701728E0,2.496075630E-2,-2.707481384E-3,1.839083433E-2
6.229479176E0,2.922296524E-3,5.661964417E-3,4.355812073E-2
6.234256624E0,-1.643598080E-2,1.635265350E-2,4.544359446E-2
6.239034124E0,-3.145873547E-2,1.568317413E-2,3.666532040E-2
6.243811572E0,-4.285287857E-2,1.949310303E-3,4.229706526E-2
6.248589019E0,-2.811336517E-2,-2.237510681E-2,2.488565445E-2
6.253366519E0,-1.295197010E-2,-7.347106934E-3,1.348876953E-2
6.258143967E0,3.807544708E-3,-2.539634705E-3,5.751729012E-3
6.262921415E0,1.266372204E-2,-9.048461914E-3,-2.576589584E-3
6.267698915E0,2.096962929E-2,-3.019332886E-3,1.589238644E-3
6.272476363E0,2.794253826E-2,-2.400398254E-3,-7.543563843E-4
6.277253811E0,2.657842636E-2,1.793861389E-3,1.337903738E-2
6.282031311E0,2.168810368E-2,-1.742362976E-3,1.244437695E-2
6.286808759E0,1.273560524E-2,-5.841255188E-3,1.395541430E-2
6.291586207E0,6.767153740E-3,-1.111602783E-2,2.213823795E-2
6.296363707E0,1.637911797E-2,-2.879524231E-2,2.917116880E-2
6.301141155E0,5.258321762E-2,-2.024936676E-2,4.404330254E-2
6.305918603E0,3.870558739E-2,-1.533603668E-2,3.459703922E-2
6.310696051E0,4.449129105E-2,-1.462841034E-2,1.520353556E-2
6.315473551E0,5.029082298E-2,-2.832412720E-4,5.028188229E-3
6.320250999E0,5.366146564E-2,9.791374207E-3,-2.410858870E-2
6.325028447E0,4.924666882E-2,-2.161979675E-3,-4.541575909E-2
6.329805947E0,3.719985485E-2,-1.163387299E-2,-6.654196978E-2
6.334583394E0,2.281689644E-2,-2.639770508E-3,-8.878517151E-2
6.339360842E0,1.329624653E-2,8.072853088E-3,-8.905088902E-2
6.344138342E0,8.593082428E-3,2.346611023E-2,-8.422237635E-2
6.348915790E0,-5.647540092E-3,2.508831024E-2,-6.953972578E-2
6.353693238E0,-2.979218960E-2,2.197265625E-2,-4.201614857E-2
6.358470738E0,1.379191875E-2,1.175117493E-2,-3.555494547E-2
6.363248186E0,6.521940231E-4,1.704025269E-2,-2.026563883E-2
6.368025634E0,-1.179182529E-2,1.753616333E-2,-3.918051720E-3
6.372803134E0,-1.343452930E-2,1.624679565E-2,1.117950678E-2
6.377580582E0,1.575577259E-2,1.257610321E-2,2.865153551E-2
6.382358030E0,3.937399387E-2,-1.743316650E-3,4.601919651E-2
6.387135530E0,4.913473129E-2,-1.121330261E-2,7.701021433E-2
6.391912978E0,8.554089069E-2,7.581710815E-4,1.035799980E-1
6.396690426E0,1.026288271E-1,3.714561462E-3,1.377563477E-1
6.401467926E0,1.225678921E-1,1.316833496E-2,1.758971214E-1
6.406245374E0,1.513303518E-1,1.364421844E-2,2.221968174E-1
6.411022822E0,1.320229769E-1,-1.435661316E-2,2.477687001E-1
6.415800269E0,1.005761623E-1,-1.829147339E-3,1.973502636E-1
6.420577769E0,6.408548355E-2,2.003860474E-2,1.787285805E-1
6.425355217E0,3.193700314E-2,3.040504456E-2,1.575861573E-1
6.430132665E0,2.757847309E-2,-2.612113953E-3,4.502695799E-2
6.434910165E0,9.573936462E-3,-1.402473450E-2,-3.612405062E-2
6.439687613E0,-2.736508846E-2,1.922607422E-3,-1.868629456E-2
6.444465061E0,-3.039693832E-2,2.423000336E-2,-1.082482338E-1
6.449242561E0,-7.802605629E-3,3.095722198E-2,-1.918340325E-1
6.454020009E0,-1.332044601E-2,1.866531372E-2,-2.382121682E-1
6.458797457E0,-1.290881634E-2,1.958751678E-2,-2.813764215E-1
6.463574957E0,-3.279364109E-2,3.422641754E-2,-3.222813606E-1
6.468352405E0,-8.521318436E-2,1.026916504E-2,-3.745369315E-1
6.473129853E0,-1.135685444E-1,-1.639366150E-2,-3.969734311E-1
6.477907353E0,-1.779320240E-1,-4.636383057E-2,-3.537769318E-1
6.482684801E0,-1.939573288E-1,-4.823589325E-2,-2.790894508E-1
6.487462249E0,-1.619033813E-1,-4.833507538E-2,-1.949161887E-1
6.492239749E0,-8.989548683E-2,-4.015827179E-2,-9.476268291E-2
6.497017197E0,-2.498376369E-2,-5.373954773E-3,3.633081913E-3
6.501794644E0,5.370998383E-2,2.910900116E-2,8.015316725E-2
6.506572144E0,1.046205759E-1,4.431438446E-2,1.428083777E-1
6.511349592E0,1.339656115E-1,4.339313507E-2,1.992472410E-1
6.516127040E0,1.307129860E-1,3.893661499E-2,2.360364795E-1
6.520904540E0,6.583261490E-2,4.873657227E-2,2.223594785E-1
6.525681988E0,4.442095757E-3,2.104091644E-2,2.044321895E-1
6.530459436E0,-3.163659573E-2,8.106231689E-5,1.480622292E-1
6.535236884E0,-6.274521351E-2,-9.450912476E-3,1.099970937E-1
6.540014384E0,-5.642604828E-2,-1.596260071E-2,7.507890463E-2
6.544791832E0,-6.088602543E-2,-9.359359741E-3,2.186298370E-2
6.549569280E0,-4.888021946E-2,7.858276367E-3,-2.052038908E-2
6.554346780E0,-3.752934933E-2,1.309394836E-2,-5.857986212E-2
6.559124228E0,-1.086270809E-2,2.543830872E-2,-7.651400566E-2
6.563901676E0,1.263129711E-2,1.811313629E-2,-8.311218023E-2
6.568679176E0,1.579666138E-2,1.028156281E-2,-9.222126007E-2
6.573456624E0,8.977532387E-3,1.084709167E-2,-5.027061701E-2
6.578234072E0,2.115678787E-2,1.916885376E-3,-2.297633886E-2
6.583011572E0,3.319382668E-2,-1.018524170E-3,7.097542286E-3
6.587789019E0,3.922212124E-2,-1.402664185E-2,4.421699047E-2
6.592566467E0,3.872954845E-2,-1.505374908E-2,6.681692600E-2
6.597343967E0,3.467440605E-2,-2.143096924E-2,9.355759621E-2
6.602121415E0,2.829563618E-2,-1.707553864E-2,9.814387560E-2
6.606898863E0,4.875433445E-2,-2.699184418E-2,1.058164835E-1
6.611676363E0,3.815650940E-2,-1.726150513E-2,1.063587070E-1
6.616453811E0,-1.643896103E-4,-2.184963226E-2,9.873837233E-2
6.621231259E0,-1.802301407E-2,-1.395988464E-2,9.428554773E-2
6.626008759E0,5.199909210E-3,-3.106880188E-2,9.122025967E-2
6.630786207E0,1.578927040E-3,-2.845954895E-2,7.997804880E-2
6.635563655E0,1.581311226E-3,-1.995182037E-2,7.613182068E-2
6.640341155E0,2.412402630E-2,-5.583763123E-3,6.462866068E-2
6.645118603E0,2.214467525E-2,1.339530945E-2,4.621493816E-2
6.649896051E0,1.723241806E-2,-2.197265625E-3,6.541597843E-2
6.654673551E0,1.653838158E-2,-2.243041992E-3,5.493414402E-2
6.659450999E0,2.237164974E-2,2.618408203E-2,5.523037910E-2
6.664228447E0,2.159571648E-2,3.419589996E-2,5.019664764E-2
6.669005947E0,2.551603317E-2,2.848148346E-2,5.890870094E-2
6.673783394E0,3.706812859E-2,1.509380341E-2,8.830487728E-2
6.678560842E0,1.430356503E-2,-1.002216339E-2,1.003598571E-1
6.683338342E0,2.141392231E-2,-1.001358032E-2,1.200891733E-1
6.688115790E0,-6.150007248E-4,-2.248954773E-2,1.036876440E-1
6.692893238E0,1.675605774E-2,-2.123737335E-2,-4.155403376E-2
6.697670738E0,-3.608560562E-2,-3.717231750E-2,-8.453261852E-2
6.702448186E0,-7.320129871E-2,-3.633689880E-2,-1.116991639E-1
6.707225634E0,-9.994351864E-2,-4.673194885E-2,-2.049989104E-1
6.712003134E0,-1.130250692E-1,-3.392982483E-2,-1.701524258E-1
6.716780582E0,-9.590184689E-2,-4.640579224E-3,-1.060748100E-1
6.721558030E0,-1.960361004E-2,-2.958583832E-2,-7.212549448E-2
6.726335530E0,6.205618382E-2,-4.243755341E-2,-7.112920284E-3
6.731112978E0,1.182039976E-1,-1.840591431E-2,4.452210665E-2
6.735890426E0,1.146652699E-1,-2.364635468E-2,9.298157692E-2
6.740667874E0,7.683730125E-2,2.126693726E-4,1.081284881E-1
6.745445374E0,3.530955315E-2,1.200866699E-2,9.910219908E-2
6.750222822E0,-1.360368729E-2,1.418972015E-2,8.503180742E-2
6.755000322E0,-3.606557846E-2,3.351879120E-2,7.728368044E-2
6.759777769E0,-2.043557167E-2,4.315948486E-2,5.618757010E-2
6.764555217E0,-5.570292473E-3,2.482700348E-2,2.818959951E-2
6.769332717E0,-3.497600555E-4,1.911163330E-2,1.335591078E-2
6.774110165E0,2.978026867E-2,2.058029175E-2,1.218825579E-2
6.778887613E0,4.601275921E-2,-4.882812500E-4,-3.388226032E-3
6.783665113E0,6.448674202E-2,4.146575928E-3,-6.631612778E-4
6.788442561E0,4.607033730E-2,2.063465118E-2,1.273036003E-3
6.793220009E0,4.791700840E-2,-2.757072449E-3,3.625333309E-3
6.797997457E0,4.613316059E-2,-2.828598022E-3,5.355834961E-3
6.802774957E0,3.850948811E-2,8.387565613E-3,1.597511768E-2
6.807552405E0,4.823923111E-2,4.088401794E-3,1.062744856E-2
6.812329905E0,4.008257389E-2,1.999092102E-2,2.077186108E-2
6.817107353E0,3.140497208E-2,1.380825043E-2,1.130557060E-2
6.821884801E0,9.801149368E-3,9.455680847E-3,1.508706808E-2
6.826662301E0,-5.690455437E-3,-4.940032959E-3,8.110761642E-3
6.831439749E0,-6.814479828E-3,-1.092052460E-2,-9.380042553E-3
6.836217197E0,5.086541176E-3,-1.745319366E-2,-1.958137751E-2
6.840994697E0,-3.010034561E-4,-6.126403809E-3,-3.747689724E-2
6.845772144E0,-6.265163422E-3,-2.456283569E-2,-4.038101435E-2
6.850549332E0,-1.094889641E-2,-2.918434143E-2,-3.977692127E-2
6.855327092E0,1.410722733E-2,-1.240539551E-2,-3.618705273E-2
6.860104540E0,3.293991089E-3,-7.048606873E-3,-4.867607355E-2
6.864881988E0,2.097725868E-3,-1.717567444E-3,-4.873037338E-2
6.869659488E0,-6.765842438E-3,1.425838470E-2,-3.220677376E-2
6.874436936E0,1.944327354E-2,-1.932144165E-3,-1.405757666E-2
6.879214384E0,2.470839024E-2,-1.754760742E-4,6.223082542E-3
6.883991884E0,1.213181019E-2,5.116462708E-3,2.228200436E-2
6.888769332E0,1.207172871E-2,3.229713440E-2,3.294712305E-2
6.893546780E0,7.883191109E-3,3.908252716E-2,3.467178345E-2
6.898324280E0,2.921628952E-2,2.860260010E-2,4.411268234E-2
6.903101728E0,2.480280399E-2,3.302097321E-2,3.812825680E-2
6.907879176E0,2.520513535E-2,3.562259674E-2,3.048121929E-2
6.912656676E0,3.023862839E-3,2.454662323E-2,1.880604029E-2
6.917434124E0,1.309502125E-2,7.044792175E-3,1.135969162E-2
6.922211572E0,1.891851425E-2,9.546279907E-4,4.692077637E-4
6.926989072E0,1.879191399E-2,-2.110481262E-3,-8.592128754E-3
6.931766519E0,2.271223068E-2,-1.601219177E-3,-1.945376396E-2
6.936543967E0,4.120826721E-3,-4.844665527E-4,-2.673763037E-2
6.941321467E0,-3.067970276E-3,-9.456634521E-3,-7.367491722E-3
6.946098915E0,7.015705109E-3,-4.696846008E-3,-2.507686615E-3
6.950876363E0,7.548809052E-3,6.217956543E-4,2.365547419E-2
6.955653863E0,2.077579498E-3,-1.903343201E-2,4.426980019E-2
6.960431311E0,4.912495613E-3,-1.778030396E-2,7.075428963E-2
6.965208759E0,1.493430138E-2,-1.949596405E-2,7.695066929E-2
6.969986259E0,3.510713577E-3,-3.422737122E-3,1.040787101E-1
6.974763707E0,2.843856812E-3,1.819610596E-3,1.032710671E-1
6.979541155E0,2.115619183E-2,-3.215885162E-2,9.618598223E-2
6.984318655E0,2.155530453E-2,-4.449939728E-2,7.976114750E-2
6.989096103E0,2.966368198E-2,-2.294826508E-2,5.305588245E-2
6.993873551E0,2.944839001E-2,-1.936244965E-2,1.292502880E-2
6.998651051E0,2.030110359E-2,-1.581668854E-2,-1.200264692E-2
7.003428499E0,-2.467036247E-3,-1.586151123E-2,-4.569894075E-2
7.008205947E0,-3.110647202E-3,-1.062393188E-3,-6.446868181E-2
7.012983447E0,-2.462518215E-2,1.182842255E-2,-8.264827728E-2
7.017760894E0,-6.792306900E-3,3.108978271E-4,-8.545255661E-2
7.022538342E0,-1.165926456E-2,1.085090637E-2,-6.999766827E-2
7.027315842E0,-1.827800274E-2,1.062965393E-2,-3.456705809E-2
7.032093290E0,-6.539225578E-3,2.523708344E-2,-2.092748880E-2
7.036870738E0,-2.038002014E-2,1.659297943E-2,-8.971691132E-4
7.041648238E0,-2.225434780E-2,4.460334778E-3,5.903899670E-3
7.046425686E0,-3.064775467E-2,1.082038879E-2,7.876813412E-3
7.051203186E0,-3.128123283E-2,7.631301880E-3,1.221632957E-2
7.055980634E0,8.403420448E-3,-5.626678467E-3,4.385674000E-2
7.060758082E0,2.637898922E-2,2.588272095E-3,5.908650160E-2
7.065535582E0,6.021821499E-2,7.763862610E-3,1.003618836E-1
7.070313030E0,4.634165764E-2,1.035690308E-3,1.424821019E-1
7.075090478E0,5.743920803E-2,1.154708862E-2,1.772259474E-1
7.079867978E0,5.959367752E-2,1.425457001E-2,2.242852449E-1
7.084645426E0,6.773173809E-2,4.479408264E-3,2.438514233E-1
7.089422874E0,7.061314583E-2,-4.997253418E-4,1.980332136E-1
7.094200374E0,5.096006393E-2,2.714443207E-2,1.733651161E-1
7.098977822E0,4.517090321E-2,2.723407745E-2,1.749312878E-1
7.103755269E0,7.048261166E-2,-1.303005219E-2,5.368804932E-2
7.108532769E0,5.009102821E-2,-3.752899170E-2,-7.095021009E-2
7.113310217E0,1.082968712E-2,-1.436996460E-2,-8.131521940E-2
7.118087665E0,-2.407562733E-2,6.233215332E-3,-1.666824222E-1
7.122865165E0,-1.654779911E-2,-2.313232422E-2,-2.101263404E-1
7.127642613E0,-3.054392338E-2,-4.789352417E-3,-1.870516539E-1
7.132420061E0,-2.245140076E-2,-6.131172180E-3,-2.458635569E-1
7.137197561E0,-3.045940399E-2,-2.577400208E-2,-3.003690243E-1
7.141975009E0,-5.816686153E-2,-4.106616974E-2,-2.786942720E-1
7.146752457E0,-7.738983631E-2,-3.839206696E-2,-2.578016520E-1
7.151529957E0,-9.951031208E-2,-3.927803040E-2,-2.493991256E-1
7.156307405E0,-1.173608303E-1,-4.251956940E-2,-1.986223459E-1
7.161084905E0,-1.148799658E-1,-3.446292877E-2,-1.553575397E-1
7.165862353E0,-9.466695786E-2,-2.885627747E-2,-9.463483095E-2
7.170639801E0,-4.854285717E-2,7.534027100E-3,-4.138350487E-2
7.175417301E0,-1.692211628E-2,1.634597778E-2,1.508730650E-2
7.180194749E0,2.523064613E-2,2.924156189E-2,6.831729412E-2
7.184972197E0,1.547729969E-2,3.371810913E-2,1.320043802E-1
7.189749697E0,2.302706242E-2,1.263332367E-2,1.407997608E-1
7.194527144E0,1.569283009E-2,2.374553680E-2,1.407918930E-1
7.199304592E0,-2.182829380E-2,1.161861420E-2,1.272869706E-1
7.204082092E0,-4.843783379E-2,1.975059509E-2,7.764142752E-2
7.208859540E0,-4.705095291E-2,1.415824890E-2,3.068846464E-2
7.213636988E0,-5.759763718E-2,-5.010604858E-3,-3.342968225E-2
7.218414488E0,-6.221866608E-2,6.244659424E-3,-8.487707376E-2
7.223191936E0,-5.200445652E-2,-1.547813416E-3,-1.256313324E-1
7.227969384E0,-6.632268429E-2,-2.157211304E-3,-1.574329138E-1
7.232746884E0,-3.013360500E-2,-3.643035889E-4,-1.436513662E-1
7.237524332E0,-1.325654984E-2,-9.840011597E-3,-1.219413877E-1
7.242301780E0,3.202414513E-2,-2.218437195E-2,-1.052177548E-1
7.247079280E0,4.024350643E-2,-2.610206604E-2,-5.779272318E-2
7.251856728E0,7.563602924E-2,-2.466678619E-2,-1.420348883E-2
7.256634228E0,7.107639313E-2,-4.163360596E-2,3.515356779E-2
7.261411676E0,8.147227764E-2,-2.880382538E-2,8.140933514E-2
7.266189124E0,8.477306366E-2,-1.726722717E-2,8.658707142E-2
7.270966572E0,7.382690907E-2,-2.127265930E-2,1.032724380E-1
7.275744072E0,4.222607613E-2,-1.221370697E-2,9.043669701E-2
7.280521519E0,6.156682968E-3,-7.395744324E-3,5.949568748E-2
7.285299019E0,-2.194678783E-2,-4.402160645E-3,3.291231394E-2
7.290076467E0,-3.137874603E-2,1.102161407E-2,2.329790592E-2
7.294853915E0,-4.136276245E-2,2.038383484E-2,-6.488800049E-3
7.299631415E0,-4.947245121E-2,1.485633850E-2,-4.451382160E-2
7.304408863E0,-3.270125389E-2,8.770942688E-3,-5.859369040E-2
7.309186311E0,-1.075005531E-2,1.401805878E-2,-7.390391827E-2
7.313963811E0,1.038646698E-2,6.172180176E-3,-8.384472132E-2
7.318741259E0,2.305388451E-2,3.744125366E-3,-7.129883766E-2
7.323518707E0,3.810167313E-2,4.645633698E-2,-5.545502901E-2
7.328296207E0,3.043508530E-2,5.381107330E-2,-3.863209486E-2
7.333073655E0,2.942669392E-2,5.994033813E-2,-9.002387524E-3
7.337851103E0,3.325974941E-2,4.408645630E-2,1.858913898E-2
7.342628603E0,2.930760384E-2,1.174926758E-2,2.930378914E-2
7.347406051E0,1.597702503E-2,-7.841110229E-3,4.938256741E-2
7.352183551E0,-1.435995102E-3,-2.962112427E-3,7.590901852E-2
7.356960999E0,1.809561253E-2,-8.809089661E-3,6.497949362E-2
7.361738447E0,1.937389374E-3,-1.570701599E-3,-4.521656036E-2
7.366515947E0,-1.650154591E-2,-2.073287964E-3,-8.613538742E-2
7.371293394E0,-3.916323185E-2,-1.144218445E-2,-3.140258789E-2
7.376070842E0,-3.432464600E-2,-3.966331482E-2,-7.911950350E-2
7.380848342E0,-1.576054096E-2,-4.922199249E-2,-9.335142374E-2
7.385625790E0,-3.767561913E-2,-4.446887970E-2,-1.465406418E-1
7.390403238E0,-3.872621059E-2,-2.732372284E-2,-1.522959471E-1
7.395180738E0,-3.101742268E-2,-7.981300354E-3,-7.075905800E-2
7.399958186E0,1.747667789E-2,7.631301880E-3,-1.546341181E-2
7.404735686E0,7.807838917E-2,1.175880432E-3,1.920694113E-2
7.409513134E0,1.175241470E-1,-2.004814148E-2,3.474307060E-2
7.414290582E0,1.259518862E-1,4.367828369E-4,5.515283346E-2
7.419068082E0,9.293699265E-2,2.075481415E-2,6.501066685E-2
7.423845530E0,4.306185246E-2,2.072238922E-2,7.981473207E-2
7.428622978E0,-9.979248047E-3,9.397506714E-3,7.986038923E-2
7.433400478E0,-4.008364677E-2,1.652717590E-2,6.825983524E-2
7.438177926E0,-5.048072338E-2,2.593994141E-2,6.810677052E-2
7.442955374E0,-5.321645737E-2,2.576160431E-2,7.147616148E-2
7.447732874E0,-1.565539837E-2,-2.299308777E-3,7.291108370E-2
7.452510322E0,1.378822327E-2,9.023666382E-3,6.646895409E-2
7.457287769E0,3.063607216E-2,2.324390411E-2,6.241345406E-2
7.462065269E0,3.069591522E-2,1.597976685E-2,5.483812094E-2
7.466842717E0,4.862689972E-2,1.234531403E-2,5.095303059E-2
7.471620217E0,5.041980743E-2,1.030921936E-3,4.180550575E-2
7.476397665E0,3.445184231E-2,5.814552307E-3,4.247200489E-2
7.481175113E0,2.511799335E-2,-3.097534180E-3,2.065932751E-2
7.485952613E0,4.440546036E-4,-8.977890015E-3,1.754057407E-2
7.490730061E0,-2.634990215E-2,3.577232361E-3,1.397740841E-2
7.495507509E0,-2.562665939E-2,-4.137039185E-3,6.856083870E-3
7.500285009E0,-2.614045143E-2,-1.773357391E-2,-5.483746529E-3
7.505062457E0,-1.596820354E-2,-2.706241608E-2,-8.241951466E-3
7.509839957E0,-1.944839954E-2,-1.435565948E-2,-1.981151104E-2
7.514617405E0,-2.243494987E-2,-2.254867554E-2,-2.884000540E-2
7.519394853E0,-1.706194878E-2,-3.362178802E-2,-1.003783941E-2
7.524172353E0,-2.596139908E-2,-1.256942749E-2,-1.925355196E-2
7.528949801E0,-2.596497536E-2,-1.306533813E-2,-1.411682367E-2
7.533727249E0,-1.461100578E-2,-1.058292389E-2,-7.759690285E-3
7.538504749E0,-1.520049572E-2,-1.583290100E-2,2.409106493E-2
7.543282197E0,-2.590084076E-2,-6.222724915E-3,2.787655592E-2
7.548059644E0,1.161408424E-2,2.822589874E-2,3.352004290E-2
7.552837144E0,9.665012360E-3,2.026367188E-2,2.851563692E-2
7.557614592E0,-2.395629883E-3,2.065372467E-2,3.611588478E-2
7.562392092E0,4.677772522E-3,1.452255249E-2,2.054971457E-2
7.567169540E0,6.937146187E-3,2.681827545E-2,2.006840706E-2
7.571946988E0,-4.383802414E-3,3.545379639E-2,1.796966791E-2
7.576724488E0,6.898880005E-3,2.147006989E-2,6.971716881E-3
7.581501936E0,3.879308701E-3,2.482414246E-2,2.144050598E-2
7.586279384E0,8.034229279E-3,1.509284973E-2,6.863951683E-3
7.591056884E0,1.394629478E-2,4.853248596E-3,8.996009827E-3
7.595834332E0,3.782153130E-3,1.605987549E-2,1.460164785E-2
7.600611780E0,3.250837326E-4,-3.664016724E-3,3.328853846E-2
7.605389280E0,2.476143837E-2,-9.346008301E-5,3.820395470E-2
7.610166728E0,3.176379204E-2,6.412506104E-3,4.778379202E-2
7.614944228E0,2.276921272E-2,1.012802124E-3,5.255085230E-2
7.619721676E0,2.929615974E-2,-1.739215851E-2,4.725247622E-2
7.624499124E0,2.385628223E-2,-1.252460480E-2,5.214452744E-2
7.629276624E0,1.322340965E-2,6.217956543E-4,3.272384405E-2
7.634054072E0,1.492023468E-3,1.365661621E-2,1.291084290E-2
7.638831519E0,-3.519856930E-2,9.352684021E-3,-1.210635900E-2
7.643609019E0,-6.508886814E-2,-5.591392517E-3,-6.130498648E-2
7.648386467E0,-5.028963089E-2,-2.989768982E-2,-8.949464560E-2
7.653163967E0,-2.670443058E-2,-5.934715271E-3,-1.051253080E-1
7.657941415E0,-1.331865788E-2,2.319908142E-2,-8.758360147E-2
7.662718863E0,-2.441406250E-3,9.984970093E-3,-7.513904572E-2
7.667496363E0,-1.128566265E-2,-2.210140228E-2,-5.164378881E-2
7.672273811E0,-3.251075745E-2,8.106231689E-5,-2.437651157E-2
7.677051259E0,-2.274787426E-2,7.240295410E-3,-7.411420345E-3
7.681828759E0,-3.564405441E-2,2.678203583E-2,2.016347647E-2
7.686606207E0,-2.231872082E-2,4.201030731E-2,3.924244642E-2
7.691383707E0,-3.946173191E-2,1.319122314E-2,4.630976915E-2
7.696161155E0,-2.451145649E-2,-2.950668335E-3,7.886987925E-2
7.700938603E0,-6.100177765E-3,-1.753807068E-3,1.183149815E-1
7.705716103E0,3.941273689E-2,-4.729270935E-3,1.456350684E-1
7.710493551E0,4.957652092E-2,-2.351760864E-3,1.782267690E-1
7.715270999E0,7.035577297E-2,-1.127433777E-2,2.278957367E-1
7.720048499E0,8.042371273E-2,-5.292892456E-3,2.513433099E-1
7.724825947E0,5.791437626E-2,3.566741943E-3,2.527396083E-1
7.729603447E0,2.031099796E-2,2.239704132E-2,1.907804608E-1
7.734380894E0,-7.625102997E-3,4.929637909E-2,1.738139987E-1
7.739158342E0,9.780645370E-3,-4.734992981E-3,1.282775998E-1
7.743935842E0,4.493689537E-2,-3.281974792E-2,4.251658916E-2
7.748713290E0,2.999246120E-2,-2.152633667E-2,1.279252768E-2
7.753490738E0,3.176748753E-2,-2.276992798E-2,-3.820878267E-2
7.758268238E0,3.762865067E-2,-1.094722748E-2,-9.784078598E-2
7.763045686E0,1.972711086E-2,9.088516235E-3,-1.409985423E-1
7.767823186E0,1.096665859E-2,2.070617676E-2,-2.025468349E-1
7.772600634E0,-2.065658569E-3,8.522033691E-3,-2.867978215E-1
7.777378082E0,-6.605398655E-2,-2.293586731E-3,-3.232828379E-1
7.782155582E0,-1.284700632E-1,-4.064559937E-3,-3.366726041E-1
7.786933030E0,-1.720716953E-1,-4.434490204E-2,-3.594409227E-1
7.791710478E0,-1.703823805E-1,-6.885147095E-2,-3.095468283E-1
7.796487978E0,-1.480392218E-1,-6.765174866E-2,-2.311525941E-1
7.801265426E0,-1.064128876E-1,-4.868698120E-2,-1.622793078E-1
7.806042926E0,-5.506634712E-2,-1.863288879E-2,-6.352663040E-2
7.810820374E0,8.252739906E-3,-2.495765686E-3,3.277540207E-2
7.815597822E0,4.204797745E-2,3.367137909E-2,1.017981768E-1
7.820375322E0,7.279765606E-2,3.454017639E-2,1.558000445E-1
7.825152769E0,9.634435177E-2,3.779411316E-2,1.792579293E-1
7.829930217E0,6.049585342E-2,5.287170410E-2,1.750363111E-1
7.834707717E0,5.236065388E-2,3.046703339E-2,1.567234397E-1
7.839485165E0,2.170515060E-2,1.653194427E-2,1.173350215E-1
7.844262665E0,-2.117419243E-2,-1.153945923E-2,8.612662554E-2
7.849040113E0,-3.947353363E-2,-2.159023285E-2,3.904992342E-2
7.853817561E0,-5.297303200E-2,2.261161804E-3,-1.027548313E-2
7.858595061E0,-6.235766411E-2,4.550933838E-3,-3.568148613E-2
7.863372509E0,-4.387998581E-2,-1.472473145E-3,-7.012850046E-2
7.868150009E0,-2.617919445E-2,-1.572227478E-2,-8.209341764E-2
7.872927457E0,-2.409553528E-2,-3.757476807E-3,-9.638905525E-2
7.877704905E0,-5.411863327E-3,-1.382541656E-2,-9.351676702E-2
7.882482405E0,5.395531654E-3,-2.201938629E-2,-6.945151091E-2
7.887259853E0,2.512717247E-2,3.088951111E-3,-4.549008608E-2
7.892037301E0,4.822444916E-2,2.382087708E-2,-1.568865776E-2
7.896814801E0,5.510282516E-2,1.114559174E-2,1.400256157E-2
7.901592249E0,2.636003494E-2,2.050495148E-2,3.837090731E-2
7.906369749E0,3.525984287E-2,3.096485138E-2,5.796003342E-2
7.911147197E0,4.466295242E-2,2.708816528E-2,3.892326355E-2
7.915924644E0,4.339790344E-2,-2.861022949E-3,4.163777828E-2
7.920702144E0,1.786088943E-2,-7.643699646E-3,3.132271767E-2
7.925479592E0,-5.661010742E-3,7.343292236E-5,2.112358809E-2
7.930257040E0,-3.546571732E-2,-1.005840302E-2,9.199976921E-3
7.935034540E0,-3.483486176E-2,-3.514289856E-3,-1.442462206E-2
7.939811988E0,-3.895998001E-2,5.933761597E-3,-3.836661577E-2
7.944589488E0,-3.365683556E-2,-1.021385193E-2,-4.027920961E-2
7.949366936E0,-1.584696770E-2,-1.968002319E-2,-4.340112209E-2
7.954144384E0,-2.315366268E-2,-1.187610626E-2,-3.223472834E-2
7.958921884E0,-1.858162880E-2,-6.517410278E-3,-2.949118614E-2
7.963699332E0,-2.744913101E-3,-2.380371094E-3,-7.233619690E-3
7.968476832E0,1.351261139E-2,6.456375122E-3,6.639957428E-4
7.973254280E0,1.246607304E-2,3.122138977E-2,2.116698027E-2
7.978031728E0,1.322722435E-2,5.458164215E-2,2.330493927E-2
7.982809228E0,-6.773948669E-3,3.681087494E-2,3.436493874E-2
7.987586676E0,8.925080299E-3,2.153491974E-2,7.398897409E-2
7.992364176E0,8.558750153E-3,2.951908112E-2,7.077097893E-2
7.997141624E0,3.071844578E-2,4.791259766E-3,5.529731512E-2
8.001919072E0,2.543270588E-2,-3.150939941E-3,-1.061986685E-1
8.006696572E0,2.487671375E-2,3.833770752E-3,-1.445898414E-1
8.011474019E0,-1.854074001E-2,1.674652100E-2,-1.325681806E-1
8.016251467E0,-2.419602871E-2,-1.073169708E-2,-2.285891175E-1
8.021028967E0,-5.289173126E-2,-3.379344940E-2,-2.979899645E-1
8.025806415E0,-7.322406769E-2,-6.854057312E-3,-2.293493748E-1
8.030583915E0,-4.970169067E-2,7.390022278E-3,-1.574282646E-1
8.035361363E0,1.629781723E-2,2.033615112E-2,-7.795011997E-2
8.040138811E0,7.476091385E-2,2.945899963E-3,-1.524865627E-3
8.044916311E0,1.096615791E-1,-7.343292236E-5,5.377089977E-2
8.049693759E0,8.676505089E-2,-1.553440094E-2,8.621758223E-2
8.054471259E0,6.247007847E-2,-3.205013275E-2,1.003938317E-1
8.059248707E0,3.426444530E-2,-1.345443726E-2,1.083163023E-1
8.064026155E0,-1.802301407E-2,1.563167572E-2,1.159206629E-1
8.068803655E0,-4.157781601E-2,1.950263977E-2,9.526813030E-2
8.073581103E0,-6.205117702E-2,2.330398560E-2,6.554561853E-2
8.078358551E0,-5.221581459E-2,3.060531616E-2,4.029768705E-2
8.083136051E0,-2.470898628E-2,2.361011505E-2,2.404868603E-2
8.087913499E0,2.454161644E-3,1.488590240E-2,1.669013500E-2
8.092690999E0,3.234684467E-2,1.337146759E-2,2.102154493E-2
8.097468447E0,4.771244526E-2,1.187133789E-2,2.076864243E-3
8.102245894E0,6.717705727E-2,1.515674591E-2,5.078017712E-3
8.107023394E0,7.643127441E-2,2.674198151E-2,1.323300600E-2
8.111800842E0,5.781006813E-2,3.290557861E-2,3.439176083E-2
8.116578342E0,5.182886124E-2,3.130245209E-2,2.522271872E-2
8.121355790E0,4.056978226E-2,1.843166351E-2,3.821802139E-2
8.126133238E0,4.183304310E-2,3.176116943E-2,1.495105028E-2
8.130910738E0,2.291083336E-2,2.420139313E-2,9.437799454E-4
8.135688186E0,1.786005497E-2,1.789283752E-2,4.970729351E-3
8.140465686E0,2.470076084E-2,3.061294556E-2,-9.986639023E-3
8.145243134E0,5.509853363E-4,2.837848663E-2,-3.308385611E-2
8.150020582E0,3.376722336E-3,2.438545227E-3,-5.171740055E-2
8.154798082E0,3.767251968E-3,2.417182922E-2,-7.857769728E-2
8.159575530E0,6.709098816E-4,1.963329315E-2,-9.332042933E-2
8.164353030E0,-9.551525116E-3,7.417678833E-3,-9.847378731E-2
8.169130478E0,-1.848936081E-4,3.022193909E-3,-9.076589346E-2
8.173907926E0,-1.516103745E-3,-6.658554077E-3,-7.903051376E-2
8.178685426E0,1.669168472E-2,-2.015113831E-3,-6.461322308E-2
8.183462874E0,2.113735676E-2,-8.069992065E-3,-4.687428474E-2
8.188240374E0,4.514515400E-2,-1.287841797E-2,-2.638739347E-2
8.193017822E0,5.953109264E-2,-1.406669617E-2,1.560449600E-3
8.197795269E0,8.454251289E-2,-2.117538452E-2,2.049088478E-2
8.202572769E0,7.976782322E-2,-2.110481262E-3,4.227960110E-2
8.207350217E0,6.198740005E-2,1.975345612E-2,5.863267183E-2
8.212127717E0,6.107163429E-2,2.364444733E-2,6.079041958E-2
8.216905165E0,5.483293533E-2,2.511787415E-2,5.477958918E-2
8.221682613E0,4.567670822E-2,2.419185638E-2,3.650414944E-2
8.226460113E0,6.218898296E-2,2.031803131E-2,2.429366112E-3
8.231237561E0,5.425870419E-2,2.418994904E-2,-1.355737448E-2
8.236015061E0,3.984463215E-2,2.032661438E-2,-2.659034729E-2
8.240792509E0,2.867782116E-2,4.204082489E-2,-6.271827221E-2
8.245569957E0,1.875662804E-2,4.281902313E-2,-9.752851725E-2
8.250347457E0,-6.732940674E-4,1.274394989E-2,-1.037744880E-1
8.255124905E0,2.208220959E-2,-1.649665833E-2,-8.756840229E-2
8.259902405E0,3.810167313E-2,-1.936817169E-2,-7.948958874E-2
8.264679853E0,3.566622734E-2,-1.329326630E-2,-4.551309347E-2
8.269457301E0,4.624497890E-2,-7.419586182E-4,-1.431423426E-2
8.274234801E0,3.437328339E-2,4.692077637E-4,2.962410450E-2
8.279012249E0,3.741466999E-2,1.073837280E-3,7.025808096E-2
8.283789749E0,2.265357971E-2,1.531314850E-2,8.748346567E-2
8.288567197E0,-2.084493637E-3,2.230358124E-2,1.094166040E-1
8.293344644E0,-1.536893845E-2,7.265090942E-3,1.082302332E-1
8.298122144E0,-2.199256420E-2,2.615642548E-2,1.006931067E-1
8.302899592E0,-2.624619007E-2,2.944469452E-2,9.394246340E-2
8.307677092E0,-1.205623150E-2,1.073741913E-2,7.145869732E-2
8.312454540E0,-2.844333649E-4,-1.491546631E-2,3.667896986E-2
8.317231988E0,1.909697056E-2,-1.722145081E-2,7.546603680E-3
8.322009488E0,2.761471272E-2,-3.375434875E-2,-1.597064734E-2
8.326786936E0,1.774287224E-2,-2.224254608E-2,-4.592871666E-2
8.331564436E0,9.740948677E-3,-2.208518982E-2,-6.035482883E-2
8.336341884E0,-1.189279556E-2,-4.714965820E-3,-7.785958052E-2
8.341119332E0,-2.810907364E-2,1.072406769E-2,-7.221174240E-2
8.345896832E0,-2.699923515E-2,1.477622986E-2,-6.205421686E-2
8.350674280E0,-1.056957245E-2,3.370285034E-3,-5.630922318E-2
8.355451780E0,-1.022171974E-2,-2.069473267E-4,-3.292417526E-2
8.360229228E0,-2.120387554E-2,6.319999695E-3,-3.582984209E-2
8.365006676E0,-6.209611893E-4,3.414154053E-4,-7.266104221E-3
8.369784176E0,-7.556676865E-3,1.753520966E-2,1.097995043E-2
8.374561624E0,4.046916962E-3,9.086608887E-3,2.086395025E-2
8.379339124E0,7.860898972E-3,1.019954681E-2,3.605556488E-2
8.384116572E0,2.828145027E-2,1.070690155E-2,5.476278067E-2
8.388894019E0,5.737924576E-2,4.673957825E-3,1.077470183E-1
8.393671519E0,7.671689987E-2,2.299594879E-2,1.278067827E-1
8.398448967E0,8.761584759E-2,3.286075592E-2,1.750199199E-1
8.403226467E0,9.789478779E-2,2.484703064E-2,2.308792472E-1
8.408003915E0,1.212846041E-1,-1.572418213E-2,2.551181912E-1
8.412781363E0,1.180315018E-1,-2.333831787E-2,2.192246318E-1
8.417558863E0,9.952378273E-2,-1.786422729E-2,1.521487236E-1
8.422336311E0,8.056724072E-2,1.180648804E-3,1.405305862E-1
8.427113811E0,5.836915970E-2,-2.798557281E-2,6.407624483E-2
8.431891259E0,7.502961159E-2,-2.605533600E-2,-1.155406237E-2
8.436668759E0,5.708599091E-2,7.279396057E-3,2.271258831E-2
8.441446207E0,4.461371899E-2,3.202533722E-2,-4.353368282E-2
8.446223655E0,7.789599895E-2,3.581047058E-2,-1.366593838E-1
8.451001155E0,8.190047741E-2,2.178192139E-2,-2.047302723E-1
8.455778603E0,7.465362549E-2,7.342338562E-3,-2.645158768E-1
8.460556103E0,3.055441380E-2,7.916450500E-3,-3.058146238E-1
8.465333551E0,-1.735734940E-2,-1.990890503E-2,-3.601999283E-1
8.470110999E0,-5.843663216E-2,-4.506587982E-2,-3.782604635E-1
8.474888499E0,-1.062960625E-1,-6.818103790E-2,-3.582247198E-1
8.479665947E0,-9.807336330E-2,-5.846118927E-2,-2.924243808E-1
8.484443447E0,-9.410333633E-2,-3.458309174E-2,-1.934410334E-1
8.489220894E0,-7.372391224E-2,-1.983737946E-2,-1.141963601E-1
8.493998342E0,-1.558816433E-2,-1.414775848E-2,-8.613646030E-3
8.498775842E0,3.671801090E-2,1.461124420E-2,6.840080023E-2
8.503553290E0,9.465360641E-2,1.821804047E-2,1.248632669E-1
8.508330790E0,8.941102028E-2,3.901576996E-2,1.673997641E-1
8.513108238E0,8.022177219E-2,5.252361298E-2,1.843914986E-1
8.517885738E0,7.946920395E-2,4.158210754E-2,1.902591586E-1
8.522663186E0,4.448020458E-2,-6.036758423E-3,1.695813537E-1
8.527440634E0,1.806807518E-2,-1.664161682E-3,1.332106590E-1
8.532218134E0,-8.234500885E-3,-2.819538116E-2,9.058082104E-2
8.536995582E0,-2.613759041E-2,-3.791141510E-2,3.521049023E-2
8.541773082E0,-6.590700150E-2,-1.254940033E-2,-2.601027489E-3
8.546550530E0,-5.495297909E-2,4.305839539E-3,-4.915517569E-2
8.551327978E0,-6.370115280E-2,2.459239960E-2,-7.775175571E-2
8.556105478E0,-6.718766689E-2,3.579998016E-2,-9.263575077E-2
8.560882926E0,-5.342972279E-2,3.922176361E-2,-1.117433310E-1
8.565660426E0,-1.668894291E-2,2.007293701E-2,-1.064451933E-1
8.570437874E0,8.403658867E-3,1.234912872E-2,-1.018712521E-1
8.575215322E0,2.439248562E-2,2.248573303E-2,-6.110692024E-2
8.579992822E0,3.976058960E-2,2.602577209E-2,-2.478754520E-2
8.584770269E0,6.212508678E-2,8.764266968E-3,3.151249886E-2
8.589547769E0,7.133114338E-2,-8.949279785E-3,4.898291826E-2
8.594325217E0,7.038640976E-2,-1.347351074E-2,4.507541656E-2
8.599102717E0,6.826865673E-2,-3.741264343E-3,5.684745312E-2
8.603880165E0,5.440866947E-2,-1.335144043E-5,6.092965603E-2
8.608657613E0,2.881240845E-2,-5.214691162E-3,5.430412292E-2
8.613435113E0,1.354444027E-2,-1.511955261E-2,3.773730993E-2
8.618212561E0,-4.611849785E-3,-4.186630249E-3,3.137588501E-2
8.622990061E0,-1.963031292E-2,-6.392478943E-3,1.498967409E-2
8.627767509E0,-3.573131561E-2,-2.048492432E-3,8.114039898E-3
8.632544957E0,-4.697012901E-2,-1.258850098E-4,-3.829002380E-4
8.637322457E0,-3.556978703E-2,1.364994049E-2,4.186451435E-3
8.642099905E0,-2.426028252E-2,1.486110687E-2,2.942061424E-2
8.646877405E0,-2.316117287E-2,-4.700660706E-3,3.659117222E-2
8.651654853E0,1.286184788E-2,6.137847900E-3,3.722131252E-2
8.656432353E0,1.659274101E-2,2.340888977E-2,3.973680735E-2
8.661209801E0,2.390587330E-2,1.205825806E-2,6.493657827E-2
8.665987249E0,4.541301727E-2,1.086807251E-2,7.412874699E-2
8.670764749E0,3.653609753E-2,1.384639740E-2,9.100073576E-2
8.675542197E0,4.677402973E-2,1.764297485E-4,1.204216480E-1
8.680319697E0,5.221927166E-2,-2.105712891E-3,1.217861772E-1
8.685097144E0,3.686738014E-2,1.637554169E-2,9.012508392E-2
8.689874644E0,3.059375286E-2,3.832817078E-3,-2.100074291E-2
8.694652092E0,2.496325970E-2,-2.746582031E-4,-1.303061247E-1
8.699429540E0,-2.229321003E-2,-3.713607788E-3,-1.112838387E-1
8.704207040E0,-5.851137638E-2,-7.667541504E-3,-2.288751602E-1
8.708984488E0,-1.093733311E-1,-9.198188782E-3,-2.319891453E-1
8.713761988E0,-1.029936075E-1,8.859634399E-3,-1.623805165E-1
8.718539436E0,-4.227697849E-2,-4.678726196E-3,-1.061266661E-1
8.723316936E0,2.691805363E-2,-4.431724548E-3,-1.842945814E-2
8.728094384E0,8.722949028E-2,-1.071453094E-2,6.676012278E-2
8.732871832E0,9.257555008E-2,1.983642578E-2,1.354568005E-1
8.737649905E0,8.906388283E-2,-3.267288208E-3,1.617411375E-1
8.742426780E0,5.534255505E-2,-1.137733459E-2,1.673877835E-1
8.747204280E0,2.132356167E-2,1.239776611E-4,1.454885006E-1
8.751981728E0,-2.073454857E-2,-6.314277649E-3,1.402637959E-1
8.756759176E0,-2.812886238E-2,-6.218910217E-3,1.448585987E-1
8.761536676E0,-4.437577724E-2,-1.381874084E-3,1.197696924E-1
8.766314124E0,-4.779219627E-3,-2.864551544E-2,9.088087082E-2
8.771091624E0,1.721477509E-2,-1.950073242E-2,6.751656532E-2
8.775869072E0,3.898262978E-2,-1.576519012E-2,5.368584394E-2
8.780646572E0,6.359183788E-2,-3.735542297E-3,4.045975208E-2
8.785424019E0,7.614707947E-2,5.244255066E-3,5.271500349E-2
8.790201467E0,7.271575928E-2,5.874633789E-3,7.607597113E-2
8.794978967E0,6.342470646E-2,1.185226440E-2,7.784622908E-2
8.799756415E0,3.759336472E-2,5.683898926E-4,7.492399216E-2
8.804533915E0,1.965034008E-2,8.945465088E-3,8.508288860E-2
8.809311363E0,-9.384155273E-3,6.570816040E-3,7.153594494E-2
8.814088863E0,-2.334368229E-2,9.540557861E-3,7.012850046E-2
8.818866311E0,-1.765334606E-2,1.543426514E-2,6.466549635E-2
8.823643759E0,-3.743410110E-3,5.251884460E-3,5.930691957E-2
8.828421259E0,-1.246333122E-3,-2.148151398E-2,4.349553585E-2
8.833198447E0,-2.541089058E-2,-1.655864716E-2,3.097814322E-2
8.837976207E0,1.668930054E-3,-1.049232483E-2,2.040952444E-2
8.842753655E0,7.751464844E-3,-1.635169983E-2,-5.390048027E-3
8.847531155E0,9.018778801E-3,-1.979255676E-2,-2.210873365E-2
8.852308603E0,-1.567602158E-3,-1.074409485E-2,-4.931789637E-2
8.857086051E0,4.032611847E-3,-2.353668213E-3,-6.084442139E-2
8.861863551E0,-1.763939857E-3,-1.421260834E-2,-6.401133537E-2
8.866640999E0,8.523225784E-3,1.401901245E-4,-5.181396008E-2
8.871418499E0,5.722999573E-3,2.566528320E-2,-4.637098312E-2
8.876195947E0,1.593923569E-2,3.495597839E-2,-4.161286354E-2
8.880973447E0,2.670526505E-2,1.571559906E-2,-3.763574362E-2
8.885750894E0,3.978502750E-2,2.036952972E-2,-8.769333363E-3
8.890528342E0,1.004922390E-2,2.202415466E-2,5.568563938E-3
8.895305842E0,1.942873001E-3,1.595592499E-2,2.099823952E-2
8.900083290E0,2.530694008E-2,4.253387451E-4,2.991068363E-2
8.904860790E0,1.475620270E-2,-1.923561096E-3,3.358978033E-2
8.909638238E0,1.289844513E-3,1.413249969E-2,2.829939127E-2
8.914415738E0,1.168560982E-2,1.462173462E-2,2.853792906E-2
8.919193186E0,1.852536201E-2,1.511192322E-2,3.187185526E-2
8.923970686E0,1.580941677E-2,-5.172729492E-3,2.694094181E-2
8.928748134E0,1.196110249E-2,-6.893157959E-3,8.408904076E-3
8.933525582E0,-9.009361267E-3,2.677917480E-3,7.258474827E-3
8.938303082E0,-1.025724411E-2,-3.847122192E-3,3.695428371E-3
8.943080530E0,7.523417473E-3,-9.123802185E-3,1.674675941E-2
8.947858030E0,4.409909248E-3,-2.482414246E-3,1.599782705E-2
8.952635478E0,-5.328655243E-3,6.437301636E-3,3.439724445E-2
8.957412978E0,-2.491235733E-3,5.794525146E-3,3.666651249E-2
8.962190426E0,8.838176727E-4,-7.925033569E-4,6.988531351E-2
8.966967874E0,3.041911125E-2,1.581001282E-2,8.046466112E-2
8.971745374E0,2.890765667E-2,2.632713318E-2,7.517594099E-2
8.976522822E0,1.860213280E-2,-1.807212830E-3,8.204728365E-2
8.981300322E0,1.383054256E-2,-5.394935608E-3,9.865844250E-2
8.986077769E0,1.204240322E-2,1.698493958E-3,9.934973717E-2
8.990855269E0,9.119153023E-3,-4.935264587E-3,8.909034729E-2
8.995632717E0,1.038885117E-2,6.258964539E-3,6.677109003E-2
9.000410165E0,3.177773952E-2,4.296302795E-3,2.272546291E-2
9.005187665E0,2.870762348E-2,-4.168510437E-3,2.237379551E-3
9.009965113E0,2.213275433E-2,5.025863647E-4,-1.758593321E-2
9.014742613E0,2.217376232E-2,-1.264476776E-2,-5.516135693E-2
9.019520061E0,-3.758668900E-4,-1.974964142E-2,-5.454695225E-2
9.024297561E0,-1.340150833E-3,-1.371955872E-2,-6.121945381E-2
9.029075009E0,8.948326111E-3,-1.307010651E-2,-5.374825001E-2
9.033852509E0,2.625024319E-2,-1.063251495E-2,-2.398031950E-2
9.038629957E0,2.095949650E-2,1.730823517E-2,8.311271667E-4
9.043407405E0,2.213406563E-2,3.252792358E-2,1.309794188E-2
9.048184905E0,2.459704876E-2,2.034950256E-2,2.886867523E-2
9.052962353E0,2.114319801E-2,1.837253571E-2,3.552401066E-2
9.057739853E0,6.484150887E-3,-8.511543274E-3,1.681399345E-2
9.062517301E0,2.575647831E-2,-1.322555542E-2,1.608246565E-2
9.067294801E0,5.142533779E-2,-2.476692200E-3,1.897287369E-2
9.072072249E0,7.990789413E-2,-1.137161255E-2,4.606431723E-2
9.076849697E0,9.926700592E-2,-3.561210632E-2,9.308701754E-2
9.081627197E0,1.320828199E-1,-2.406120300E-2,1.408891678E-1
9.086404644E0,1.498501301E-1,-2.268028259E-2,1.835445166E-1
9.091182144E0,1.735615730E-1,-2.366828918E-2,2.271986604E-1
9.095959592E0,1.616877317E-1,-3.652095795E-2,2.360043526E-1
9.100737092E0,1.394255161E-1,-1.249408722E-2,1.870866418E-1
9.105514540E0,7.768559456E-2,1.783275604E-2,1.876714826E-1
9.110292040E0,6.228983402E-2,-2.091693878E-2,1.477665305E-1
9.115069488E0,5.079185963E-2,-4.985332489E-2,2.741467953E-2
9.119846988E0,-1.108670235E-2,-1.983451843E-2,-4.633545876E-3
9.124624436E0,-3.345453739E-2,1.940250397E-2,-1.747703552E-2
9.129401884E0,-4.440367222E-2,1.956939697E-3,-1.073753238E-1
9.134179384E0,-1.840698719E-2,-4.615879059E-2,-1.516183615E-1
9.138956832E0,-1.994585991E-2,-5.529403687E-2,-1.838979721E-1
9.143734332E0,-2.685880661E-2,-4.057598114E-2,-2.100110650E-1
9.148511780E0,-4.800152779E-2,-2.354907990E-2,-2.675352693E-1
9.153289280E0,-1.028127670E-1,-5.881500244E-2,-3.050807416E-1
9.158066728E0,-1.501442194E-1,-6.054210663E-2,-3.030610681E-1
9.162844228E0,-1.894810200E-1,-6.283855438E-2,-2.776722908E-1
9.167621676E0,-2.072365284E-1,-8.351516724E-2,-2.745580673E-1
9.172399124E0,-1.870509386E-1,-6.965065002E-2,-2.114688754E-1
9.177176624E0,-1.451638937E-1,-2.922058105E-2,-1.429901123E-1
9.181954072E0,-7.572782040E-2,1.145839691E-2,-8.206301928E-2
9.186731572E0,-1.153230667E-2,2.452564240E-2,-2.638059855E-2
9.191509019E0,3.332042694E-2,3.098011017E-2,2.898991108E-2
9.196286519E0,4.164958000E-2,3.382778168E-2,6.138712168E-2
9.201063967E0,3.760993481E-2,2.659416199E-2,8.820545673E-2
9.205841467E0,-2.588510513E-3,3.719902039E-2,8.299452066E-2
9.210618915E0,-4.252672195E-2,4.651927948E-2,6.770622730E-2
9.215396415E0,-8.217859268E-2,3.855133057E-2,4.184740782E-2
9.220173863E0,-1.050084829E-1,4.309177399E-2,8.405148983E-3
9.224951311E0,-1.255131960E-1,1.434230804E-2,-3.975582123E-2
9.229728811E0,-1.222208738E-1,2.439308167E-2,-7.293426991E-2
9.234506259E0,-1.250036955E-1,2.665042877E-2,-1.156430840E-1
9.239283759E0,-1.196291447E-1,3.539848328E-2,-1.546553373E-1
9.244061207E0,-8.349704742E-2,3.993415833E-2,-1.746103764E-1
9.248838707E0,-6.145668030E-2,4.204559326E-2,-1.791744828E-1
9.253616155E0,-4.084134102E-2,2.576637268E-2,-1.656228900E-1
9.258393655E0,-2.161264420E-4,-1.636505127E-3,-1.487653255E-1
9.263171103E0,2.878677845E-2,-9.813308716E-3,-1.215863228E-1
9.267948551E0,6.287384033E-2,-7.181167603E-4,-8.696508408E-2
9.272726051E0,6.938779354E-2,4.755020142E-3,-4.922842979E-2
9.277503499E0,8.718705177E-2,9.009361267E-3,-2.546733618E-2
9.282280999E0,8.348381519E-2,3.281593323E-2,-1.389360428E-2
9.287058447E0,6.324946880E-2,2.913761139E-2,6.228685379E-4
9.291835947E0,5.205452442E-2,4.726409912E-3,1.914006472E-2
9.296613394E0,5.896449089E-3,2.678108215E-2,1.491552591E-2
9.301390894E0,-5.395531654E-3,2.315521240E-2,1.195913553E-2
9.306168342E0,-1.719880104E-2,3.556442261E-2,1.330232620E-2
9.310945842E0,-8.130431175E-3,3.363513947E-2,8.121669292E-3
9.315723290E0,-8.604288101E-3,3.884887695E-2,2.340078354E-3
9.320500738E0,-9.667515755E-3,4.637336731E-2,1.165485382E-2
9.325278238E0,4.663467407E-3,2.180194855E-2,1.131820679E-2
9.330055686E0,1.587831974E-2,6.929397583E-3,1.205354929E-2
9.334833186E0,3.952169418E-2,5.235671997E-3,2.594274282E-2
9.339610634E0,6.302046776E-2,5.941390991E-3,5.155807734E-2
9.344388134E0,4.365241528E-2,1.435565948E-2,5.626648664E-2
9.349165582E0,4.523849487E-2,-6.957054138E-3,7.043713331E-2
9.353943082E0,3.797364235E-2,-1.392364502E-3,8.636021614E-2
9.358720530E0,2.430713177E-2,6.507873535E-3,1.004090309E-1
9.363498030E0,1.134693623E-2,6.933212280E-4,1.144179702E-1
9.368275478E0,8.018255234E-3,-2.050971985E-2,1.012548208E-1
9.373052926E0,1.847743988E-3,-3.027629852E-2,-2.886331081E-2
9.377830426E0,-3.333890438E-2,-1.857185364E-2,-7.823508978E-2
9.382607874E0,-6.719708443E-2,-2.177047729E-2,-1.281088591E-2
9.387385374E0,-6.879556179E-2,-4.685688019E-2,-9.205043316E-2
9.392162822E0,-7.263147831E-2,-7.169914246E-2,-1.559454203E-1
9.396940322E0,-7.711219788E-2,-5.482482910E-2,-1.000745893E-1
9.401717769E0,-5.380833149E-2,-3.455829620E-2,-2.388215065E-2
9.406495269E0,7.798910141E-3,-4.414939880E-2,4.414206743E-2
9.411272717E0,6.307399273E-2,-4.296970367E-2,9.154933691E-2
9.416050217E0,7.225501537E-2,-4.003620148E-2,1.448111534E-1
9.420827665E0,6.068706512E-2,-1.992702484E-2,1.759459972E-1
9.425605113E0,2.853679657E-2,-1.364231110E-2,1.798929572E-1
9.430382613E0,-5.624651909E-3,-2.047538757E-2,1.741049886E-1
9.435160061E0,-3.597068787E-2,-3.561019897E-3,1.551572680E-1
9.439937561E0,-7.624292374E-2,-4.615783691E-4,1.282085776E-1
9.444715009E0,-7.776689529E-2,7.911682129E-3,1.063488722E-1
9.449492509E0,-4.431176186E-2,1.442527771E-2,6.515187025E-2
9.454269957E0,-1.364254951E-2,9.598731995E-3,4.608690739E-2
9.459047457E0,-2.170562744E-3,2.204704285E-2,3.463953733E-2
9.463824905E0,2.046048641E-2,1.541996002E-2,2.842527628E-2
9.468602405E0,5.537068844E-2,2.428436279E-2,1.025432348E-2
9.473379853E0,5.080044270E-2,2.240276337E-2,9.898006916E-3
9.478157353E0,2.202367783E-2,6.913185120E-3,6.506264210E-3
9.482934801E0,2.249908447E-2,7.564544678E-3,1.137393713E-2
9.487712249E0,-5.453228951E-3,7.037162781E-3,1.260429621E-2
9.492489749E0,-1.243424416E-2,8.283615112E-3,2.753001451E-2
9.497267197E0,-4.461884499E-3,6.568908691E-3,3.222030401E-2
9.502044697E0,-1.616668701E-2,-4.033088684E-3,3.208732605E-2
9.506822144E0,-2.895033360E-2,-3.282546997E-3,3.146594763E-2
9.511599644E0,-3.390955925E-2,-3.726005554E-3,3.028500080E-2
